theta,phi,psi,altitude,vx,vy,vz,accelx,accely,accelz,yaw1,yaw2
-3408.0,-83971.0,131983.0,270.0,0.0,0.0,0.0,-12.715,1018.719,-77.73,0.978,-0.02
-3408.0,-83972.0,131984.0,270.0,0.0,0.0,0.0,-12.245,1016.352,-77.96,0.864,-0.15
-3409.0,-83973.0,131986.0,271.0,0.0,0.0,0.0,-12.602,1016.914,-75.49,0.794,-0.37
-3409.0,-83974.0,131987.0,271.0,0.0,0.0,0.0,-12.585,1017.081,-75.6,1.015,-0.31
-3409.0,-83975.0,131991.0,271.0,0.0,0.0,0.0,-12.634,1019.117,-76.16,0.849,-0.59
-3410.0,-83976.0,131993.0,271.0,0.0,0.0,0.0,-12.496,1021.276,-78.35,1.007,-0.35
-3410.0,-83975.0,131994.0,271.0,0.0,0.0,0.0,-12.348,1020.551,-80.77,1.088,-0.26
-3410.0,-83976.0,131996.0,271.0,0.0,0.0,0.0,-12.244,1020.299,-80.12,0.83,-0.32
-3410.0,-83976.0,131997.0,271.0,0.0,0.0,0.0,-12.116,1020.522,-79.85,0.999,-0.24
-3410.0,-83977.0,131999.0,271.0,0.0,0.0,0.0,-12.038,1020.567,-80.01,0.714,-0.34
-3411.0,-83979.0,132000.0,273.0,0.0,0.0,0.0,-12.043,1018.324,-79.91,0.674,-0.21
-3411.0,-83980.0,132002.0,273.0,0.0,0.0,0.0,-12.102,1016.06,-79.89,0.723,-0.2
-3411.0,-83981.0,132002.0,273.0,0.0,0.0,0.0,-12.183,1016.645,-79.88,0.832,-0.01
-3411.0,-83981.0,132003.0,273.0,0.0,0.0,0.0,-12.282,1016.878,-79.9,1.008,-0.15
-3411.0,-83980.0,132004.0,273.0,0.0,0.0,0.0,-10.018,1016.601,-79.85,1.154,-0.23
-3410.0,-83979.0,132005.0,273.0,0.0,0.0,0.0,-7.802,1016.576,-79.8,1.178,-0.23
-3410.0,-83978.0,132008.0,273.0,0.0,0.0,0.0,-10.755,1016.528,-82.25,1.122,-0.44
-3411.0,-83976.0,132009.0,273.0,0.0,0.0,0.0,-13.319,1016.591,-84.63,1.149,-0.27
-3411.0,-83976.0,132011.0,274.0,0.0,0.0,0.0,-12.53,1016.75,-84.03,0.945,-0.33
-3411.0,-83976.0,132013.0,274.0,0.0,0.0,0.0,-12.168,1016.918,-83.72,0.877,-0.31
-3412.0,-83976.0,132014.0,274.0,0.0,0.0,0.0,-14.562,1017.04,-83.94,0.892,-0.29
-3412.0,-83976.0,132016.0,274.0,0.0,0.0,0.0,-14.444,1017.132,-81.5,0.891,-0.32
-3412.0,-83975.0,132018.0,274.0,0.0,0.0,0.0,-11.533,1017.102,-79.12,1.12,-0.32
-3413.0,-83975.0,132020.0,274.0,0.0,0.0,0.0,-14.125,1016.954,-79.74,1.04,-0.3
-3414.0,-83975.0,132021.0,274.0,0.0,0.0,0.0,-16.94,1016.812,-80.11,0.918,-0.31
-3415.0,-83976.0,132023.0,274.0,0.0,0.0,0.0,-16.186,1016.7,-79.93,0.903,-0.31
-3416.0,-83977.0,132025.0,276.0,0.0,0.0,0.0,-15.99,1016.646,-79.96,0.838,-0.31
-3417.0,-83977.0,132027.0,276.0,0.0,0.0,0.0,-16.197,1016.64,-79.96,0.961,-0.31
-3417.0,-83977.0,132028.0,276.0,0.0,0.0,0.0,-16.221,1018.995,-80.02,0.969,-0.31
-3418.0,-83977.0,132029.0,276.0,0.0,0.0,0.0,-16.173,1018.872,-82.4,0.912,-0.17
-3419.0,-83976.0,132031.0,276.0,0.0,0.0,0.0,-16.114,1015.941,-84.68,0.917,-0.22
-3420.0,-83976.0,132031.0,276.0,0.0,0.0,0.0,-16.167,1016.276,-84.1,0.923,-0.16
-3420.0,-83976.0,132033.0,276.0,0.0,0.0,0.0,-16.182,1016.793,-83.8,0.921,-0.24
-3421.0,-83976.0,132035.0,276.0,0.0,0.0,0.0,-16.276,1016.697,-81.57,0.788,-0.38
-3422.0,-83977.0,132037.0,276.0,0.0,0.0,0.0,-16.378,1016.857,-79.2,0.833,-0.3
-3423.0,-83978.0,132038.0,276.0,0.0,0.0,0.0,-16.355,1016.811,-79.79,0.905,-0.22
-3424.0,-83977.0,132039.0,276.0,0.0,0.0,0.0,-16.313,1016.815,-80.08,1.087,-0.2
-3424.0,-83976.0,132040.0,276.0,0.0,0.0,0.0,-13.894,1016.755,-79.88,1.255,-0.13
-3424.0,-83975.0,132041.0,276.0,0.0,0.0,0.0,-11.529,1016.725,-79.88,1.143,-0.25
-3425.0,-83975.0,132044.0,276.0,0.0,0.0,0.0,-12.177,1016.867,-77.49,1.121,-0.39
-3425.0,-83975.0,132045.0,276.0,0.0,0.0,0.0,-12.566,1017.041,-75.18,1.081,-0.15
-3425.0,-83976.0,132046.0,276.0,0.0,0.0,0.0,-12.391,1017.132,-75.75,0.963,-0.27
-3425.0,-83976.0,132047.0,274.0,0.0,0.0,0.0,-14.722,1017.144,-78.5,1.05,-0.13
-3426.0,-83976.0,132048.0,274.0,0.0,0.0,0.0,-14.584,1017.092,-80.66,0.828,-0.2
-3426.0,-83976.0,132050.0,274.0,0.0,0.0,0.0,-11.638,1016.958,-82.45,0.944,-0.4
-3426.0,-83976.0,132052.0,274.0,0.0,0.0,0.0,-11.927,1016.873,-82.09,0.89,-0.3
-3426.0,-83977.0,132054.0,274.0,0.0,0.0,0.0,-12.5,1016.839,-79.36,0.933,-0.36
-3427.0,-83977.0,132055.0,274.0,0.0,0.0,0.0,-12.268,1016.687,-79.58,0.947,-0.15
-3427.0,-83978.0,132056.0,274.0,0.0,0.0,0.0,-12.268,1016.557,-80.07,0.77,-0.18
-3427.0,-83979.0,132057.0,274.0,0.0,0.0,0.0,-12.202,1018.847,-79.89,0.816,-0.17
-3427.0,-83980.0,132058.0,272.0,0.0,0.0,0.0,-12.133,1021.035,-82.39,0.623,-0.11
-3427.0,-83981.0,132059.0,272.0,0.0,0.0,0.0,-12.15,1020.472,-82.29,0.751,-0.29
-3427.0,-83982.0,132060.0,272.0,0.0,0.0,0.0,-12.3,1020.293,-79.39,0.84,-0.14
-3427.0,-83983.0,132062.0,272.0,0.0,0.0,0.0,-12.369,1018.118,-79.61,0.831,-0.29
-3427.0,-83983.0,132064.0,272.0,0.0,0.0,0.0,-12.403,1015.783,-80.04,0.902,-0.36
-3428.0,-83983.0,132066.0,272.0,0.0,0.0,0.0,-12.417,1016.418,-79.85,0.933,-0.27
-3427.0,-83985.0,132067.0,272.0,0.0,0.0,0.0,-12.387,1016.768,-79.9,0.733,-0.24
-3427.0,-83984.0,132068.0,272.0,0.0,0.0,0.0,-12.251,1016.618,-82.26,1.048,-0.21
-3426.0,-83983.0,132069.0,272.0,0.0,0.0,0.0,-9.812,1016.726,-82.2,0.985,-0.12
-3426.0,-83984.0,132071.0,272.0,0.0,0.0,0.0,-9.917,1016.893,-79.26,0.923,-0.26
-3426.0,-83983.0,132073.0,272.0,0.0,0.0,0.0,-12.804,1016.988,-79.59,1.152,-0.39
-3427.0,-83984.0,132074.0,272.0,0.0,0.0,0.0,-12.528,1016.993,-80.07,0.891,-0.29
-3427.0,-83984.0,132076.0,272.0,0.0,0.0,0.0,-12.091,1017.023,-79.84,0.928,-0.37
-3427.0,-83983.0,132078.0,272.0,0.0,0.0,0.0,-12.313,1017.032,-79.9,1.104,-0.29
-3426.0,-83984.0,132079.0,272.0,0.0,0.0,0.0,-12.249,1017.007,-79.87,0.767,-0.14
-3427.0,-83984.0,132080.0,272.0,0.0,0.0,0.0,-14.551,1016.895,-82.34,0.869,-0.24
-3427.0,-83985.0,132081.0,273.0,0.0,0.0,0.0,-16.753,1016.766,-84.7,0.785,-0.17
-3427.0,-83985.0,132082.0,273.0,0.0,0.0,0.0,-13.847,1016.677,-84.06,0.727,-0.09
-3427.0,-83984.0,132083.0,273.0,0.0,0.0,0.0,-13.664,1014.243,-83.71,1.031,-0.16
-3427.0,-83983.0,132083.0,273.0,0.0,0.0,0.0,-14.411,1014.203,-83.88,1.09,-0.05
-3426.0,-83982.0,132084.0,273.0,0.0,0.0,0.0,-11.9,1017.076,-81.46,1.042,-0.13
-3426.0,-83982.0,132086.0,273.0,0.0,0.0,0.0,-12.078,1016.799,-81.52,1.058,-0.29
-3425.0,-83982.0,132088.0,273.0,0.0,0.0,0.0,-12.598,1016.392,-82.04,0.963,-0.34
-3425.0,-83982.0,132089.0,273.0,0.0,0.0,0.0,-12.473,1016.818,-79.43,0.994,-0.22
-3425.0,-83981.0,132091.0,272.0,0.0,0.0,0.0,-12.485,1016.886,-79.54,1.192,-0.26
-3425.0,-83981.0,132092.0,272.0,0.0,0.0,0.0,-12.326,1016.988,-80.06,0.973,-0.1
-3425.0,-83980.0,132093.0,272.0,0.0,0.0,0.0,-12.269,1017.014,-79.84,1.077,-0.22
-3425.0,-83980.0,132095.0,272.0,0.0,0.0,0.0,-12.162,1019.385,-79.96,0.935,-0.41
-3425.0,-83981.0,132097.0,272.0,0.0,0.0,0.0,-12.126,1019.31,-79.91,0.859,-0.3
-3426.0,-83981.0,132099.0,272.0,0.0,0.0,0.0,-12.136,1018.718,-79.94,0.965,-0.36
-3426.0,-83983.0,132100.0,272.0,0.0,0.0,0.0,-12.123,1021.206,-79.98,0.714,-0.29
-3425.0,-83983.0,132101.0,272.0,0.0,0.0,0.0,-9.754,1020.966,-79.93,0.836,-0.13
-3425.0,-83984.0,132103.0,272.0,0.0,0.0,0.0,-9.817,1020.344,-79.93,0.936,-0.24
-3425.0,-83983.0,132104.0,272.0,0.0,0.0,0.0,-12.743,1020.495,-79.98,1.062,-0.17
-3425.0,-83982.0,132104.0,272.0,0.0,0.0,0.0,-10.136,1020.338,-79.93,1.241,-0.09
-3424.0,-83982.0,132106.0,272.0,0.0,0.0,0.0,-7.41,1020.357,-79.88,0.998,-0.29
-3424.0,-83982.0,132107.0,272.0,0.0,0.0,0.0,-8.282,1020.412,-79.89,1.013,-0.14
-3423.0,-83982.0,132108.0,272.0,0.0,0.0,0.0,-8.609,1018.226,-79.85,0.918,-0.29
-3423.0,-83982.0,132110.0,272.0,0.0,0.0,0.0,-8.514,1016.088,-79.8,1.028,-0.37
-3422.0,-83981.0,132112.0,272.0,0.0,0.0,0.0,-8.517,1016.766,-79.81,1.209,-0.26
-3422.0,-83981.0,132114.0,273.0,0.0,0.0,0.0,-8.476,1017.115,-79.82,0.963,-0.38
-3422.0,-83981.0,132115.0,273.0,0.0,0.0,0.0,-8.419,1016.941,-79.82,1.066,-0.16
-3421.0,-83981.0,132116.0,273.0,0.0,0.0,0.0,-10.684,1016.973,-79.86,0.929,-0.18
-3421.0,-83981.0,132117.0,273.0,0.0,0.0,0.0,-12.957,1014.589,-79.86,1.004,-0.18
-3421.0,-83980.0,132119.0,273.0,0.0,0.0,0.0,-12.361,1012.245,-79.8,1.062,-0.24
-3421.0,-83980.0,132121.0,273.0,0.0,0.0,0.0,-12.059,1015.082,-79.85,1.014,-0.38
-3421.0,-83981.0,132123.0,273.0,0.0,0.0,0.0,-12.269,1017.618,-79.91,0.856,-0.3
-3421.0,-83981.0,132125.0,273.0,0.0,0.0,0.0,-12.282,1016.835,-79.89,0.922,-0.36
-3421.0,-83982.0,132126.0,274.0,0.0,0.0,0.0,-12.318,1016.551,-79.89,0.849,-0.29
-3421.0,-83982.0,132128.0,274.0,0.0,0.0,0.0,-12.293,1016.69,-79.89,0.94,-0.28
-3421.0,-83982.0,132130.0,274.0,0.0,0.0,0.0,-12.281,1016.646,-79.89,0.951,-0.33
-3421.0,-83983.0,132132.0,274.0,0.0,0.0,0.0,-12.249,1016.627,-79.89,0.754,-0.32
-3421.0,-83984.0,132133.0,274.0,0.0,0.0,0.0,-12.213,1018.958,-79.94,0.954,-0.31
-3421.0,-83984.0,132135.0,274.0,0.0,0.0,0.0,-9.757,1018.825,-82.28,0.853,-0.31
-3420.0,-83982.0,132136.0,274.0,0.0,0.0,0.0,-7.365,1018.203,-84.56,1.139,-0.17
-3420.0,-83981.0,132137.0,274.0,0.0,0.0,0.0,-7.969,1020.824,-84.04,1.164,-0.22
-3419.0,-83980.0,132137.0,273.0,0.0,0.0,0.0,-8.312,1020.775,-83.73,1.127,-0.02
-3419.0,-83979.0,132138.0,273.0,0.0,0.0,0.0,-8.186,1020.331,-83.89,1.004,-0.15
-3418.0,-83978.0,132140.0,273.0,0.0,0.0,0.0,-8.293,1020.656,-83.85,0.972,-0.23
-3417.0,-83978.0,132141.0,273.0,0.0,0.0,0.0,-8.354,1020.681,-83.86,0.931,-0.22
-3417.0,-83978.0,132143.0,273.0,0.0,0.0,0.0,-8.443,1018.429,-83.79,0.917,-0.43
-3417.0,-83977.0,132145.0,273.0,0.0,0.0,0.0,-10.83,1016.109,-83.81,1.096,-0.27
-3417.0,-83977.0,132146.0,273.0,0.0,0.0,0.0,-13.187,1016.738,-81.47,0.786,-0.19
-3418.0,-83977.0,132147.0,273.0,0.0,0.0,0.0,-12.59,1017.022,-79.13,0.994,-0.21
-3418.0,-83977.0,132148.0,272.0,0.0,0.0,0.0,-12.159,1016.72,-79.71,1.001,-0.14
-3418.0,-83978.0,132149.0,272.0,0.0,0.0,0.0,-12.24,1016.673,-80.02,0.841,-0.11
-3418.0,-83977.0,132150.0,272.0,0.0,0.0,0.0,-12.174,1016.614,-79.85,1.163,-0.16
-3418.0,-83978.0,132150.0,272.0,0.0,0.0,0.0,-12.206,1016.614,-79.89,0.777,0.09
-3417.0,-83979.0,132150.0,272.0,0.0,0.0,0.0,-12.252,1016.62,-79.88,0.807,-0.04
-3417.0,-83980.0,132150.0,272.0,0.0,0.0,0.0,-12.355,1016.664,-79.9,0.784,-0.0
-3417.0,-83981.0,132151.0,272.0,0.0,0.0,0.0,-12.437,1019.05,-79.93,0.737,-0.17
-3417.0,-83981.0,132153.0,272.0,0.0,0.0,0.0,-12.519,1018.999,-79.94,1.012,-0.28
-3417.0,-83981.0,132154.0,272.0,0.0,0.0,0.0,-12.581,1016.108,-79.88,0.942,-0.26
-3418.0,-83981.0,132156.0,272.0,0.0,0.0,0.0,-12.553,1016.36,-79.88,0.939,-0.38
-3418.0,-83983.0,132158.0,272.0,0.0,0.0,0.0,-12.453,1016.829,-79.89,0.74,-0.26
-3418.0,-83984.0,132160.0,272.0,0.0,0.0,0.0,-12.307,1016.654,-79.89,0.788,-0.35
-3418.0,-83985.0,132162.0,272.0,0.0,0.0,0.0,-12.148,1016.754,-79.89,0.759,-0.31
-3418.0,-83985.0,132163.0,272.0,0.0,0.0,0.0,-12.016,1016.756,-79.89,0.994,-0.29
-3419.0,-83984.0,132165.0,272.0,0.0,0.0,0.0,-11.858,1016.702,-82.28,1.08,-0.32
-3419.0,-83983.0,132167.0,272.0,0.0,0.0,0.0,-11.765,1016.591,-84.62,0.905,-0.32
-3419.0,-83983.0,132169.0,274.0,0.0,0.0,0.0,-11.903,1016.708,-81.64,0.939,-0.31
-3419.0,-83984.0,132170.0,274.0,0.0,0.0,0.0,-12.069,1016.852,-79.0,0.797,-0.32
-3419.0,-83985.0,132172.0,274.0,0.0,0.0,0.0,-12.139,1016.868,-79.75,0.915,-0.31
-3419.0,-83984.0,132174.0,274.0,0.0,0.0,0.0,-12.221,1016.889,-80.02,1.109,-0.31
-3420.0,-83983.0,132176.0,274.0,0.0,0.0,0.0,-12.301,1016.896,-79.86,1.142,-0.31
-3420.0,-83983.0,132177.0,274.0,0.0,0.0,0.0,-12.35,1016.881,-79.88,1.007,-0.31
-3420.0,-83984.0,132179.0,274.0,0.0,0.0,0.0,-12.375,1016.882,-79.89,0.904,-0.31
-3420.0,-83985.0,132181.0,274.0,0.0,0.0,0.0,-12.363,1019.247,-79.95,0.647,-0.31
-3420.0,-83987.0,132183.0,279.0,0.0,0.0,0.0,-12.336,1021.554,-79.98,0.764,-0.31
-3420.0,-83986.0,132184.0,279.0,0.0,0.0,0.0,-12.238,1020.859,-82.36,0.973,-0.31
-3421.0,-83986.0,132186.0,279.0,0.0,0.0,0.0,-12.231,1018.13,-82.26,0.946,-0.31
-3421.0,-83985.0,132188.0,279.0,0.0,0.0,0.0,-12.32,1016.001,-79.29,1.122,-0.31
-3421.0,-83986.0,132189.0,279.0,0.0,0.0,0.0,-12.293,1016.447,-79.58,0.961,-0.31
-3421.0,-83985.0,132191.0,279.0,0.0,0.0,0.0,-12.268,1016.727,-80.06,1.022,-0.31
-3421.0,-83985.0,132193.0,279.0,0.0,0.0,0.0,-12.275,1016.605,-79.85,1.0,-0.31
-3421.0,-83985.0,132195.0,279.0,0.0,0.0,0.0,-12.197,1016.666,-82.29,0.991,-0.31
-3421.0,-83985.0,132197.0,279.0,0.0,0.0,0.0,-12.231,1016.859,-81.71,0.869,-0.22
-3420.0,-83984.0,132197.0,279.0,0.0,0.0,0.0,-12.161,1016.791,-84.31,0.902,-0.02
-3421.0,-83985.0,132198.0,279.0,0.0,0.0,0.0,-12.273,1016.878,-81.8,0.703,-0.15
-3421.0,-83986.0,132200.0,279.0,0.0,0.0,0.0,-12.323,1019.193,-81.39,0.837,-0.23
-3421.0,-83986.0,132201.0,279.0,0.0,0.0,0.0,-12.266,1021.279,-84.58,0.776,-0.22
-3421.0,-83986.0,132203.0,279.0,0.0,0.0,0.0,-12.33,1020.603,-84.21,0.964,-0.44
-3421.0,-83986.0,132204.0,279.0,0.0,0.0,0.0,-12.436,1020.3,-81.39,0.925,-0.13
-3421.0,-83986.0,132205.0,276.0,0.0,0.0,0.0,-12.387,1020.393,-81.62,0.955,-0.24
-3421.0,-83986.0,132206.0,276.0,0.0,0.0,0.0,-12.29,1020.329,-82.11,0.872,-0.15
-3422.0,-83987.0,132207.0,276.0,0.0,0.0,0.0,-12.289,1020.491,-79.53,0.736,-0.08
-3422.0,-83987.0,132209.0,276.0,0.0,0.0,0.0,-12.227,1020.56,-79.6,0.967,-0.3
-3422.0,-83989.0,132210.0,276.0,0.0,0.0,0.0,-12.191,1020.641,-80.14,0.705,-0.15
-3422.0,-83989.0,132211.0,276.0,0.0,0.0,0.0,-14.589,1020.725,-79.97,0.893,-0.28
-3423.0,-83990.0,132215.0,276.0,0.0,0.0,0.0,-11.682,1020.709,-79.94,0.878,-0.26
-3423.0,-83989.0,132217.0,273.0,0.0,0.0,0.0,-11.964,1020.687,-79.98,1.143,-0.38
-3423.0,-83990.0,132219.0,273.0,0.0,0.0,0.0,-12.401,1023.022,-80.02,0.976,-0.3
-3423.0,-83989.0,132220.0,273.0,0.0,0.0,0.0,-12.137,1025.323,-80.05,1.021,-0.27
-3423.0,-83989.0,132222.0,273.0,0.0,0.0,0.0,-12.166,1022.439,-80.01,1.0,-0.33
-3423.0,-83990.0,132224.0,273.0,0.0,0.0,0.0,-9.83,1019.967,-77.52,0.975,-0.32
-3422.0,-83990.0,132226.0,273.0,0.0,0.0,0.0,-7.61,1020.825,-75.15,1.156,-0.31
-3422.0,-83990.0,132227.0,273.0,0.0,0.0,0.0,-8.172,1021.094,-75.76,1.113,-0.32
-3421.0,-83991.0,132229.0,273.0,0.0,0.0,0.0,-8.495,1020.935,-76.07,1.009,-0.31
-3421.0,-83991.0,132231.0,270.0,0.0,0.0,0.0,-8.374,1020.959,-75.9,0.982,-0.31
-3420.0,-83993.0,132233.0,270.0,0.0,0.0,0.0,-8.458,1018.601,-75.89,0.768,-0.32
-3420.0,-83995.0,132235.0,270.0,0.0,0.0,0.0,-8.49,1016.289,-75.84,0.795,-0.31
-3420.0,-83996.0,132236.0,270.0,0.0,0.0,0.0,-8.525,1016.78,-75.87,0.789,-0.31
-3419.0,-83998.0,132238.0,270.0,0.0,0.0,0.0,-8.519,1016.982,-75.86,0.754,-0.31
-3419.0,-83998.0,132240.0,270.0,0.0,0.0,0.0,-8.445,1016.604,-78.25,0.995,-0.31
-3418.0,-83998.0,132242.0,270.0,0.0,0.0,0.0,-8.367,1016.444,-80.59,1.058,-0.31
-3417.0,-83997.0,132243.0,270.0,0.0,0.0,0.0,-8.376,1016.393,-80.0,1.178,-0.31
-3416.0,-83997.0,132245.0,270.0,0.0,0.0,0.0,-8.378,1016.438,-79.69,0.989,-0.31
-3416.0,-83997.0,132247.0,270.0,0.0,0.0,0.0,-10.74,1016.546,-79.9,0.868,-0.31
-3417.0,-83998.0,132249.0,270.0,0.0,0.0,0.0,-13.055,1016.735,-79.9,0.802,-0.31
-3417.0,-83998.0,132250.0,270.0,0.0,0.0,0.0,-12.466,1016.887,-79.9,0.86,-0.31
-3417.0,-83998.0,132252.0,270.0,0.0,0.0,0.0,-12.161,1016.971,-79.88,1.117,-0.31
-3417.0,-83996.0,132256.0,270.0,0.0,0.0,0.0,-12.289,1016.936,-79.89,1.133,-0.31
-3418.0,-83995.0,132257.0,270.0,0.0,0.0,0.0,-12.301,1016.892,-79.89,1.127,-0.31
-3418.0,-83995.0,132259.0,272.0,0.0,0.0,0.0,-12.285,1016.882,-79.89,1.041,-0.31
-3418.0,-83995.0,132261.0,272.0,0.0,0.0,0.0,-12.301,1016.904,-79.89,1.084,-0.31
-3418.0,-83994.0,132263.0,272.0,0.0,0.0,0.0,-12.299,1016.934,-79.89,1.127,-0.31
-3418.0,-83993.0,132264.0,272.0,0.0,0.0,0.0,-12.296,1016.949,-79.89,1.102,-0.31
-3418.0,-83993.0,132266.0,272.0,0.0,0.0,0.0,-12.286,1019.288,-79.94,1.095,-0.31
-3419.0,-83992.0,132268.0,272.0,0.0,0.0,0.0,-12.271,1021.557,-79.98,1.097,-0.31
-3419.0,-83992.0,132270.0,272.0,0.0,0.0,0.0,-14.647,1020.968,-80.02,0.948,-0.31
-3420.0,-83992.0,132271.0,272.0,0.0,0.0,0.0,-16.969,1020.649,-80.05,1.005,-0.17
-3421.0,-83992.0,132272.0,273.0,0.0,0.0,0.0,-16.384,1020.764,-80.05,0.943,-0.22
-3421.0,-83993.0,132273.0,273.0,0.0,0.0,0.0,-16.088,1020.663,-80.04,0.875,-0.16
-3422.0,-83992.0,132275.0,273.0,0.0,0.0,0.0,-13.92,1018.246,-79.95,1.077,-0.38
-3422.0,-83993.0,132278.0,273.0,0.0,0.0,0.0,-11.603,1015.857,-79.86,0.778,-0.48
-3422.0,-83994.0,132280.0,273.0,0.0,0.0,0.0,-12.221,1016.413,-79.88,0.834,-0.45
-3423.0,-83995.0,132283.0,273.0,0.0,0.0,0.0,-12.496,1016.693,-79.9,0.753,-0.44
-3423.0,-83996.0,132284.0,273.0,0.0,0.0,0.0,-12.205,1016.425,-82.28,0.718,-0.22
-3423.0,-83996.0,132285.0,273.0,0.0,0.0,0.0,-12.159,1016.465,-82.23,1.006,-0.3
-3423.0,-83995.0,132287.0,271.0,0.0,0.0,0.0,-12.177,1014.204,-79.26,1.068,-0.28
-3423.0,-83994.0,132288.0,271.0,0.0,0.0,0.0,-12.156,1014.271,-79.54,1.17,-0.2
-3423.0,-83994.0,132290.0,271.0,0.0,0.0,0.0,-12.132,1017.164,-80.07,1.129,-0.25
-3423.0,-83994.0,132291.0,271.0,0.0,0.0,0.0,-12.211,1017.008,-79.85,0.955,-0.15
-3423.0,-83994.0,132292.0,271.0,0.0,0.0,0.0,-12.306,1016.695,-79.9,0.955,-0.23
-3424.0,-83994.0,132294.0,271.0,0.0,0.0,0.0,-12.394,1017.047,-79.87,0.936,-0.39
-3424.0,-83994.0,132296.0,271.0,0.0,0.0,0.0,-12.468,1017.082,-79.91,1.037,-0.3
-3424.0,-83993.0,132298.0,271.0,0.0,0.0,0.0,-12.5,1017.118,-79.89,1.174,-0.37
-3424.0,-83993.0,132299.0,268.0,0.0,0.0,0.0,-12.399,1016.943,-82.28,0.932,-0.29
-3424.0,-83992.0,132301.0,268.0,0.0,0.0,0.0,-12.254,1016.79,-84.62,0.905,-0.28
-3424.0,-83993.0,132303.0,268.0,0.0,0.0,0.0,-12.265,1016.818,-81.64,0.817,-0.33
-3425.0,-83994.0,132304.0,268.0,0.0,0.0,0.0,-12.273,1016.83,-78.99,0.685,-0.32
-3425.0,-83994.0,132306.0,268.0,0.0,0.0,0.0,-12.194,1016.723,-79.75,1.018,-0.31
-3425.0,-83994.0,132308.0,268.0,0.0,0.0,0.0,-12.149,1018.967,-80.06,1.004,-0.31
-3425.0,-83994.0,132310.0,268.0,0.0,0.0,0.0,-12.158,1018.84,-79.9,1.049,-0.31
-3425.0,-83993.0,132311.0,268.0,0.0,0.0,0.0,-12.182,1018.283,-79.92,1.058,-0.31
-3425.0,-83994.0,132313.0,266.0,0.0,0.0,0.0,-12.213,1018.544,-79.93,0.78,-0.18
-3425.0,-83996.0,132314.0,266.0,0.0,0.0,0.0,-12.264,1016.234,-79.89,0.729,-0.22
-3425.0,-83997.0,132315.0,266.0,0.0,0.0,0.0,-12.292,1018.753,-79.92,0.772,-0.16
-3426.0,-83998.0,132316.0,266.0,0.0,0.0,0.0,-12.335,1019.286,-79.94,0.761,-0.24
-3426.0,-83998.0,132318.0,266.0,0.0,0.0,0.0,-12.401,1016.18,-79.88,0.849,-0.38
-3426.0,-83999.0,132320.0,266.0,0.0,0.0,0.0,-12.437,1016.489,-79.88,0.816,-0.3
-3426.0,-84001.0,132322.0,266.0,0.0,0.0,0.0,-12.444,1016.842,-79.89,0.623,-0.36
-3426.0,-84002.0,132324.0,266.0,0.0,0.0,0.0,-12.414,1016.604,-79.89,0.841,-0.29
-3427.0,-84002.0,132325.0,266.0,0.0,0.0,0.0,-14.804,1016.721,-77.55,0.88,-0.28
-3427.0,-84002.0,132327.0,266.0,0.0,0.0,0.0,-14.674,1016.673,-77.6,1.117,-0.33
-3428.0,-84001.0,132329.0,266.0,0.0,0.0,0.0,-13.97,1018.969,-80.56,1.206,-0.32
-3429.0,-84000.0,132331.0,266.0,0.0,0.0,0.0,-16.532,1021.348,-80.37,1.081,-0.31
-3429.0,-84000.0,132332.0,266.0,0.0,0.0,0.0,-16.43,1020.916,-79.88,1.098,-0.31
-3430.0,-83999.0,132334.0,266.0,0.0,0.0,0.0,-15.919,1020.775,-80.08,1.061,-0.31
-3430.0,-83999.0,132336.0,266.0,0.0,0.0,0.0,-16.168,1021.091,-80.03,1.078,-0.31
-3430.0,-83998.0,132337.0,266.0,0.0,0.0,0.0,-16.05,1021.056,-82.45,1.116,-0.18
-3431.0,-83997.0,132338.0,268.0,0.0,0.0,0.0,-16.05,1021.002,-84.75,1.098,-0.22
-3432.0,-83995.0,132339.0,268.0,0.0,0.0,0.0,-16.084,1018.61,-84.13,1.082,-0.16
-3432.0,-83995.0,132341.0,268.0,0.0,0.0,0.0,-16.162,1016.248,-83.78,0.946,-0.24
-3433.0,-83994.0,132343.0,268.0,0.0,0.0,0.0,-16.202,1016.703,-83.96,0.995,-0.38
-3434.0,-83994.0,132344.0,268.0,0.0,0.0,0.0,-13.854,1016.858,-83.88,0.788,-0.3
-3434.0,-83994.0,132346.0,268.0,0.0,0.0,0.0,-11.625,1016.641,-81.45,0.923,-0.36
-3434.0,-83995.0,132348.0,268.0,0.0,0.0,0.0,-12.257,1016.663,-79.11,0.861,-0.29
-3434.0,-83996.0,132350.0,268.0,0.0,0.0,0.0,-14.853,1016.56,-79.76,0.902,-0.28
-3435.0,-83995.0,132351.0,270.0,0.0,0.0,0.0,-14.548,1016.499,-80.06,1.06,-0.19
-3435.0,-83996.0,132352.0,270.0,0.0,0.0,0.0,-11.633,1016.442,-79.84,0.832,-0.23
-3435.0,-83996.0,132353.0,270.0,0.0,0.0,0.0,-14.251,1016.495,-79.93,0.945,-0.15
-3436.0,-83997.0,132354.0,270.0,0.0,0.0,0.0,-14.705,1016.576,-79.93,0.67,-0.24
-3436.0,-83998.0,132356.0,270.0,0.0,0.0,0.0,-11.621,1016.63,-79.89,0.789,-0.38
-3436.0,-83999.0,132358.0,270.0,0.0,0.0,0.0,-12.02,1016.705,-79.88,0.92,-0.29
-3436.0,-83998.0,132360.0,270.0,0.0,0.0,0.0,-14.811,1016.676,-82.33,1.052,-0.37
-3437.0,-83996.0,132362.0,270.0,0.0,0.0,0.0,-16.88,1016.614,-84.71,1.209,-0.29
-3437.0,-83995.0,132363.0,271.0,0.0,0.0,0.0,-14.029,1016.705,-81.67,1.114,-0.14
-3437.0,-83994.0,132364.0,271.0,0.0,0.0,0.0,-11.336,1016.739,-81.37,1.082,-0.24
-3437.0,-83993.0,132365.0,271.0,0.0,0.0,0.0,-12.068,1016.811,-82.09,1.05,-0.17
-3437.0,-83993.0,132366.0,271.0,0.0,0.0,0.0,-12.388,1017.015,-79.43,1.08,-0.23
-3438.0,-83993.0,132368.0,271.0,0.0,0.0,0.0,-12.248,1017.089,-79.55,0.963,-0.39
-3438.0,-83993.0,132370.0,271.0,0.0,0.0,0.0,-14.678,1017.122,-80.1,1.002,-0.29
-3439.0,-83993.0,132372.0,271.0,0.0,0.0,0.0,-17.033,1017.122,-79.93,0.924,-0.36
-3440.0,-83994.0,132374.0,271.0,0.0,0.0,0.0,-16.461,1017.033,-79.99,0.863,-0.3
-3440.0,-83994.0,132375.0,269.0,0.0,0.0,0.0,-13.737,1016.895,-79.89,0.922,-0.28
-3440.0,-83996.0,132377.0,269.0,0.0,0.0,0.0,-11.546,1016.747,-79.89,0.675,-0.33
-3440.0,-83996.0,132378.0,269.0,0.0,0.0,0.0,-12.038,1018.978,-79.93,0.813,-0.18
-3441.0,-83996.0,132380.0,269.0,0.0,0.0,0.0,-14.61,1021.106,-82.41,0.906,-0.22
-3441.0,-83996.0,132380.0,269.0,0.0,0.0,0.0,-16.755,1020.474,-82.4,0.891,-0.02
-3441.0,-83996.0,132381.0,269.0,0.0,0.0,0.0,-13.987,1020.22,-79.41,1.12,-0.14
-3440.0,-83997.0,132382.0,269.0,0.0,0.0,0.0,-11.402,1020.377,-79.64,0.808,-0.23
-3440.0,-83997.0,132384.0,269.0,0.0,0.0,0.0,-12.238,1020.411,-80.14,0.909,-0.23
-3440.0,-83998.0,132386.0,268.0,0.0,0.0,0.0,-12.569,1020.557,-79.93,0.822,-0.44
-3440.0,-83999.0,132387.0,268.0,0.0,0.0,0.0,-12.443,1020.661,-79.98,0.744,-0.13
-3441.0,-83999.0,132388.0,268.0,0.0,0.0,0.0,-12.448,1020.761,-79.95,0.979,-0.24
-3441.0,-84000.0,132389.0,268.0,0.0,0.0,0.0,-12.376,1020.785,-79.98,0.824,-0.15
-3440.0,-83999.0,132391.0,268.0,0.0,0.0,0.0,-12.308,1020.764,-79.97,1.099,-0.22
-3441.0,-83999.0,132393.0,268.0,0.0,0.0,0.0,-12.226,1020.73,-79.96,1.135,-0.4
-3441.0,-83998.0,132394.0,268.0,0.0,0.0,0.0,-12.199,1020.702,-79.97,1.097,-0.31
-3441.0,-83997.0,132396.0,268.0,0.0,0.0,0.0,-12.188,1020.713,-79.97,1.129,-0.35
-3441.0,-83998.0,132398.0,268.0,0.0,0.0,0.0,-12.172,1020.764,-79.97,0.9,-0.29
-3441.0,-83997.0,132399.0,268.0,0.0,0.0,0.0,-12.078,1020.747,-82.36,0.964,-0.14
-3440.0,-83997.0,132400.0,268.0,0.0,0.0,0.0,-9.615,1020.693,-84.65,0.951,-0.23
-3439.0,-83996.0,132401.0,268.0,0.0,0.0,0.0,-9.696,1020.721,-84.06,1.014,-0.17
-3439.0,-83995.0,132403.0,268.0,0.0,0.0,0.0,-12.652,1020.71,-83.81,1.156,-0.23
-3439.0,-83994.0,132405.0,268.0,0.0,0.0,0.0,-12.428,1020.624,-83.97,1.07,-0.39
-3439.0,-83992.0,132406.0,268.0,0.0,0.0,0.0,-9.647,1020.526,-83.87,1.132,-0.29
-3438.0,-83991.0,132408.0,268.0,0.0,0.0,0.0,-7.593,1018.12,-83.8,1.063,-0.36
-3438.0,-83991.0,132410.0,268.0,0.0,0.0,0.0,-8.14,1015.831,-83.74,0.91,-0.29
-3437.0,-83991.0,132412.0,268.0,0.0,0.0,0.0,-8.433,1016.432,-83.78,0.859,-0.28
-3437.0,-83992.0,132413.0,268.0,0.0,0.0,0.0,-10.55,1016.77,-83.82,0.694,-0.33
-3437.0,-83993.0,132415.0,268.0,0.0,0.0,0.0,-12.88,1016.611,-83.86,0.605,-0.32
-3436.0,-83993.0,132417.0,268.0,0.0,0.0,0.0,-12.33,1016.671,-81.46,0.832,-0.31
-3436.0,-83994.0,132418.0,268.0,0.0,0.0,0.0,-12.099,1016.635,-79.12,0.905,-0.17
-3436.0,-83993.0,132419.0,268.0,0.0,0.0,0.0,-12.246,1016.51,-79.71,1.117,-0.08
-3436.0,-83992.0,132419.0,268.0,0.0,0.0,0.0,-12.223,1016.405,-80.02,1.176,-0.07
-3436.0,-83992.0,132422.0,268.0,0.0,0.0,0.0,-9.991,1016.52,-79.85,0.95,-0.31
-3435.0,-83992.0,132424.0,268.0,0.0,0.0,0.0,-7.781,1016.684,-79.8,0.959,-0.37
-3434.0,-83993.0,132426.0,268.0,0.0,0.0,0.0,-8.429,1016.887,-79.82,0.766,-0.35
-3434.0,-83993.0,132427.0,268.0,0.0,0.0,0.0,-8.73,1017.026,-79.82,0.934,-0.2
-3433.0,-83993.0,132428.0,268.0,0.0,0.0,0.0,-8.492,1017.063,-79.82,1.003,-0.17
-3432.0,-83993.0,132429.0,268.0,0.0,0.0,0.0,-8.409,1019.356,-79.87,0.981,-0.14
-3431.0,-83992.0,132430.0,268.0,0.0,0.0,0.0,-8.282,1021.542,-79.91,1.21,-0.26
-3431.0,-83992.0,132432.0,268.0,0.0,0.0,0.0,-8.325,1020.943,-77.51,1.042,-0.39
-3430.0,-83993.0,132434.0,268.0,0.0,0.0,0.0,-8.379,1020.661,-75.17,0.956,-0.29
-3430.0,-83994.0,132436.0,268.0,0.0,0.0,0.0,-8.373,1020.793,-75.76,0.984,-0.22
-3429.0,-83996.0,132437.0,268.0,0.0,0.0,0.0,-8.379,1020.761,-76.07,0.753,-0.19
-3428.0,-83997.0,132438.0,268.0,0.0,0.0,0.0,-8.39,1020.801,-75.9,0.775,-0.13
-3428.0,-83999.0,132439.0,268.0,0.0,0.0,0.0,-10.783,1020.799,-75.98,0.77,-0.26
-3429.0,-84002.0,132441.0,268.0,0.0,0.0,0.0,-13.154,1018.441,-75.97,0.581,-0.39
-3429.0,-84003.0,132443.0,268.0,0.0,0.0,0.0,-12.627,1016.055,-75.93,0.734,-0.29
-3429.0,-84005.0,132445.0,269.0,0.0,0.0,0.0,-12.272,1016.438,-78.31,0.789,-0.37
-3429.0,-84005.0,132447.0,269.0,0.0,0.0,0.0,-12.345,1018.91,-80.71,0.922,-0.29
-3429.0,-84004.0,132448.0,269.0,0.0,0.0,0.0,-12.275,1021.0,-80.16,1.112,-0.28
-3429.0,-84004.0,132450.0,269.0,0.0,0.0,0.0,-12.251,1020.492,-79.84,1.002,-0.33
-3429.0,-84004.0,132452.0,269.0,0.0,0.0,0.0,-12.109,1020.189,-82.4,0.975,-0.32
-3429.0,-84003.0,132454.0,269.0,0.0,0.0,0.0,-12.102,1020.548,-82.3,0.947,-0.31
-3429.0,-84004.0,132455.0,269.0,0.0,0.0,0.0,-12.192,1020.79,-79.39,0.966,-0.32
-3430.0,-84003.0,132457.0,269.0,0.0,0.0,0.0,-12.191,1020.952,-79.65,1.142,-0.31
-3430.0,-84003.0,132459.0,269.0,0.0,0.0,0.0,-12.199,1021.012,-80.14,0.941,-0.31
-3430.0,-84003.0,132461.0,269.0,0.0,0.0,0.0,-12.245,1018.708,-79.88,1.038,-0.32
-3430.0,-84003.0,132462.0,269.0,0.0,0.0,0.0,-12.281,1016.382,-79.88,0.892,-0.31
-3430.0,-84004.0,132464.0,269.0,0.0,0.0,0.0,-12.3,1016.889,-79.87,0.826,-0.31
-3430.0,-84003.0,132466.0,269.0,0.0,0.0,0.0,-12.311,1017.095,-79.91,1.072,-0.31
-3430.0,-84004.0,132468.0,269.0,0.0,0.0,0.0,-12.319,1016.812,-79.89,0.914,-0.31
-3430.0,-84003.0,132469.0,269.0,0.0,0.0,0.0,-12.24,1016.656,-82.28,1.052,-0.31
-3431.0,-84002.0,132471.0,269.0,0.0,0.0,0.0,-12.237,1016.567,-82.23,1.133,-0.31
-3431.0,-84001.0,132472.0,270.0,0.0,0.0,0.0,-12.249,1016.573,-81.69,1.024,-0.17
-3431.0,-84000.0,132473.0,270.0,0.0,0.0,0.0,-12.223,1018.918,-81.97,1.145,-0.08
-3430.0,-84000.0,132473.0,270.0,0.0,0.0,0.0,-9.922,1021.346,-79.52,1.069,-0.07
-3430.0,-83999.0,132474.0,270.0,0.0,0.0,0.0,-10.02,1018.51,-79.53,1.039,-0.09
-3430.0,-83999.0,132476.0,270.0,0.0,0.0,0.0,-10.607,1015.981,-80.02,0.949,-0.31
-3429.0,-84000.0,132478.0,270.0,0.0,0.0,0.0,-8.081,1016.769,-79.74,0.844,-0.37
-3429.0,-84002.0,132480.0,270.0,0.0,0.0,0.0,-10.613,1017.057,-79.88,0.671,-0.35
-3429.0,-84004.0,132482.0,270.0,0.0,0.0,0.0,-13.445,1016.881,-79.89,0.608,-0.34
-3429.0,-84004.0,132483.0,274.0,0.0,0.0,0.0,-10.187,1016.766,-79.86,0.82,-0.26
-3428.0,-84005.0,132485.0,274.0,0.0,0.0,0.0,-7.516,1016.592,-79.8,0.897,-0.3
-3428.0,-84004.0,132487.0,274.0,0.0,0.0,0.0,-10.404,1016.389,-82.24,1.116,-0.34
-3429.0,-84003.0,132488.0,274.0,0.0,0.0,0.0,-12.87,1013.859,-84.59,1.021,-0.32
-3429.0,-84003.0,132490.0,274.0,0.0,0.0,0.0,-12.106,1011.586,-83.94,0.816,-0.31
-3429.0,-84003.0,132492.0,274.0,0.0,0.0,0.0,-11.819,1014.627,-83.68,0.837,-0.31
-3429.0,-84003.0,132493.0,274.0,0.0,0.0,0.0,-12.028,1015.033,-83.86,0.812,-0.31
-3429.0,-84002.0,132495.0,274.0,0.0,0.0,0.0,-12.067,1012.155,-83.76,1.062,-0.31
-3429.0,-84000.0,132497.0,380.0,0.0,0.0,0.0,-12.117,1012.578,-83.77,1.158,-0.32
-3429.0,-83999.0,132499.0,380.0,0.0,0.0,0.0,-12.159,1013.085,-83.76,1.115,-0.31
-3429.0,-83997.0,132500.0,380.0,0.0,0.0,0.0,-12.203,1015.264,-83.82,1.098,-0.31
-3429.0,-83996.0,132502.0,380.0,0.0,0.0,0.0,-12.206,1017.623,-83.86,1.021,-0.31
-3429.0,-83995.0,132504.0,380.0,0.0,0.0,0.0,-12.216,1017.05,-83.85,1.056,-0.31
-3429.0,-83995.0,132505.0,380.0,0.0,0.0,0.0,-12.282,1019.231,-81.5,1.101,-0.17
-3428.0,-83994.0,132506.0,380.0,0.0,0.0,0.0,-12.333,1021.738,-79.21,1.082,-0.22
-3429.0,-83994.0,132507.0,380.0,0.0,0.0,0.0,-12.311,1021.053,-79.79,1.07,-0.16
-3429.0,-83994.0,132509.0,380.0,0.0,0.0,0.0,-12.312,1020.7,-80.09,0.927,-0.24
-3429.0,-83994.0,132511.0,380.0,0.0,0.0,0.0,-12.341,1020.788,-79.93,0.975,-0.39
-3429.0,-83995.0,132512.0,380.0,0.0,0.0,0.0,-12.381,1018.349,-79.92,0.917,-0.3
-3429.0,-83995.0,132514.0,380.0,0.0,0.0,0.0,-12.406,1015.998,-79.87,0.857,-0.22
-3429.0,-83995.0,132515.0,380.0,0.0,0.0,0.0,-12.382,1016.485,-79.9,0.908,-0.2
-3429.0,-83996.0,132515.0,380.0,0.0,0.0,0.0,-12.339,1016.743,-79.89,0.802,0.0
-3429.0,-83998.0,132516.0,380.0,0.0,0.0,0.0,-12.384,1016.61,-77.5,0.746,-0.16
-3429.0,-83999.0,132518.0,380.0,0.0,0.0,0.0,-10.082,1016.679,-75.12,0.956,-0.24
-3428.0,-84000.0,132519.0,275.0,0.0,0.0,0.0,-7.773,1016.615,-75.67,0.795,-0.22
-3428.0,-84002.0,132521.0,275.0,0.0,0.0,0.0,-10.766,1016.651,-76.03,0.809,-0.44
-3428.0,-84002.0,132523.0,275.0,0.0,0.0,0.0,-13.409,1019.042,-75.96,0.935,-0.27
-3428.0,-84004.0,132525.0,275.0,0.0,0.0,0.0,-12.623,1021.377,-76.03,0.761,-0.33
-3428.0,-84005.0,132527.0,275.0,0.0,0.0,0.0,-12.307,1020.86,-76.01,0.965,-0.31
-3427.0,-84006.0,132528.0,275.0,0.0,0.0,0.0,-12.307,1020.53,-78.41,0.892,-0.29
-3428.0,-84006.0,132530.0,275.0,0.0,0.0,0.0,-12.129,1020.67,-80.73,0.824,-0.32
-3428.0,-84008.0,132532.0,275.0,0.0,0.0,0.0,-12.097,1020.697,-80.15,0.74,-0.32
-3428.0,-84009.0,132534.0,273.0,0.0,0.0,0.0,-12.092,1018.405,-79.8,0.785,-0.3
-3428.0,-84009.0,132535.0,273.0,0.0,0.0,0.0,-12.055,1016.009,-82.31,0.848,-0.17
-3428.0,-84008.0,132536.0,273.0,0.0,0.0,0.0,-12.007,1016.49,-84.61,0.903,-0.22
-3428.0,-84007.0,132537.0,273.0,0.0,0.0,0.0,-12.078,1016.764,-84.04,1.106,-0.16
-3428.0,-84006.0,132538.0,273.0,0.0,0.0,0.0,-9.711,1016.462,-86.05,0.924,-0.24
-3427.0,-84006.0,132540.0,273.0,0.0,0.0,0.0,-9.835,1016.505,-86.19,0.852,-0.39
-3427.0,-84006.0,132542.0,273.0,0.0,0.0,0.0,-10.528,1016.646,-83.22,0.869,-0.3
-3427.0,-84007.0,132544.0,273.0,0.0,0.0,0.0,-7.945,1016.683,-83.46,0.641,-0.36
-3426.0,-84006.0,132546.0,271.0,0.0,0.0,0.0,-8.035,1014.343,-83.88,0.96,-0.43
-3426.0,-84005.0,132548.0,271.0,0.0,0.0,0.0,-8.497,1014.402,-83.69,0.994,-0.37
-3425.0,-84005.0,132551.0,271.0,0.0,0.0,0.0,-8.171,1017.228,-83.8,0.883,-0.48
-3425.0,-84005.0,132553.0,271.0,0.0,0.0,0.0,-10.528,1016.923,-83.8,0.936,-0.4
-3425.0,-84006.0,132554.0,271.0,0.0,0.0,0.0,-12.807,1016.539,-81.48,0.603,-0.23
-3425.0,-84008.0,132556.0,271.0,0.0,0.0,0.0,-12.282,1016.828,-79.12,0.624,-0.33
-3426.0,-84009.0,132558.0,271.0,0.0,0.0,0.0,-11.939,1016.747,-79.71,0.821,-0.26
-3426.0,-84010.0,132560.0,271.0,0.0,0.0,0.0,-12.137,1016.732,-80.02,0.724,-0.33
-3426.0,-84010.0,132561.0,270.0,0.0,0.0,0.0,-12.115,1016.563,-82.24,0.876,-0.35
-3426.0,-84010.0,132563.0,270.0,0.0,0.0,0.0,-12.218,1016.526,-82.23,0.914,-0.3
-3426.0,-84011.0,132564.0,270.0,0.0,0.0,0.0,-12.381,1016.615,-79.29,0.806,-0.16
-3426.0,-84010.0,132565.0,270.0,0.0,0.0,0.0,-12.361,1016.538,-81.98,1.086,-0.23
-3426.0,-84009.0,132566.0,270.0,0.0,0.0,0.0,-12.292,1016.512,-84.78,1.1,-0.16
-3426.0,-84008.0,132568.0,270.0,0.0,0.0,0.0,-12.329,1016.642,-83.98,0.944,-0.24
-3426.0,-84007.0,132570.0,270.0,0.0,0.0,0.0,-9.975,1016.748,-83.69,1.029,-0.39
-3425.0,-84008.0,132571.0,270.0,0.0,0.0,0.0,-7.645,1016.836,-83.78,0.713,-0.29
-3425.0,-84008.0,132573.0,270.0,0.0,0.0,0.0,-10.659,1017.028,-81.44,0.871,-0.36
-3426.0,-84009.0,132575.0,270.0,0.0,0.0,0.0,-13.307,1017.146,-79.14,0.867,-0.29
-3426.0,-84010.0,132577.0,270.0,0.0,0.0,0.0,-12.458,1017.051,-79.7,0.739,-0.28
-3426.0,-84010.0,132579.0,270.0,0.0,0.0,0.0,-14.484,1016.936,-80.07,0.939,-0.33
-3427.0,-84011.0,132581.0,270.0,0.0,0.0,0.0,-14.539,1016.803,-79.89,0.797,-0.46
-3427.0,-84010.0,132583.0,270.0,0.0,0.0,0.0,-13.952,1016.673,-79.92,1.08,-0.4
-3429.0,-84010.0,132588.0,270.0,0.0,0.0,0.0,-16.412,1016.605,-79.98,0.989,-0.38
-3429.0,-84010.0,132589.0,271.0,0.0,0.0,0.0,-15.831,1016.566,-82.35,0.948,-0.1
-3429.0,-84010.0,132590.0,271.0,0.0,0.0,0.0,-13.598,1016.558,-84.65,0.802,-0.24
-3429.0,-84010.0,132591.0,271.0,0.0,0.0,0.0,-11.252,1016.663,-84.01,0.877,-0.11
-3426.0,-84010.0,132595.0,271.0,0.0,0.0,0.0,-7.652,1014.438,-83.76,0.889,-0.42
-3426.0,-84009.0,132596.0,271.0,0.0,0.0,0.0,-8.173,1017.286,-83.78,1.04,-0.28
-3425.0,-84007.0,132598.0,271.0,0.0,0.0,0.0,-8.594,1016.954,-83.79,1.093,-0.35
-3425.0,-84006.0,132600.0,271.0,0.0,0.0,0.0,-8.411,1016.432,-83.76,1.113,-0.3
-3425.0,-84005.0,132601.0,270.0,0.0,0.0,0.0,-8.42,1016.626,-83.78,1.107,-0.28
-3424.0,-84004.0,132603.0,270.0,0.0,0.0,0.0,-8.31,1016.607,-83.77,1.01,-0.33
-3423.0,-84003.0,132605.0,270.0,0.0,0.0,0.0,-8.323,1016.79,-81.38,1.049,-0.32
-3423.0,-84003.0,132607.0,270.0,0.0,0.0,0.0,-10.605,1019.196,-81.53,1.087,-0.3
-3423.0,-84003.0,132608.0,270.0,0.0,0.0,0.0,-12.868,1019.209,-82.11,0.923,-0.32
-3424.0,-84003.0,132610.0,270.0,0.0,0.0,0.0,-12.378,1016.437,-79.42,0.97,-0.31
-3423.0,-84003.0,132612.0,270.0,0.0,0.0,0.0,-9.621,1016.56,-81.88,0.905,-0.31
-3423.0,-84002.0,132614.0,270.0,0.0,0.0,0.0,-7.463,1019.275,-82.36,0.983,-0.32
-3422.0,-84002.0,132615.0,269.0,0.0,0.0,0.0,-8.13,1021.388,-79.26,1.142,-0.31
-3421.0,-84002.0,132617.0,269.0,0.0,0.0,0.0,-8.402,1018.33,-81.96,0.906,-0.31
-3420.0,-84001.0,132619.0,269.0,0.0,0.0,0.0,-8.164,1015.547,-84.67,1.02,-0.31
-3419.0,-84001.0,132620.0,269.0,0.0,0.0,0.0,-8.338,1016.421,-81.53,0.883,-0.17
-3419.0,-84001.0,132621.0,269.0,0.0,0.0,0.0,-8.406,1019.117,-78.98,0.955,-0.22
-3418.0,-84000.0,132622.0,269.0,0.0,0.0,0.0,-8.314,1021.166,-82.14,1.155,-0.16
-3418.0,-83999.0,132624.0,269.0,0.0,0.0,0.0,-8.316,1020.638,-82.38,1.057,-0.24
-3417.0,-83998.0,132626.0,269.0,0.0,0.0,0.0,-8.463,1018.134,-79.22,1.111,-0.39
-3417.0,-83999.0,132627.0,269.0,0.0,0.0,0.0,-10.79,1015.994,-81.92,0.898,-0.3
-3417.0,-83999.0,132629.0,269.0,0.0,0.0,0.0,-13.017,1016.485,-84.8,0.787,-0.22
-3417.0,-83999.0,132630.0,269.0,0.0,0.0,0.0,-12.431,1016.865,-84.0,0.679,-0.2
-3417.0,-84001.0,132631.0,269.0,0.0,0.0,0.0,-12.09,1016.685,-83.72,0.602,-0.13
-3417.0,-84002.0,132632.0,269.0,0.0,0.0,0.0,-12.197,1019.01,-83.92,0.659,-0.26
-3416.0,-84003.0,132634.0,269.0,0.0,0.0,0.0,-12.124,1021.161,-83.95,0.648,-0.4
-3416.0,-84003.0,132636.0,269.0,0.0,0.0,0.0,-12.222,1020.528,-81.54,0.842,-0.29
-3417.0,-84004.0,132638.0,269.0,0.0,0.0,0.0,-12.292,1020.166,-79.18,0.916,-0.37
-3417.0,-84004.0,132640.0,270.0,0.0,0.0,0.0,-12.275,1020.244,-79.8,0.902,-0.29
-3417.0,-84004.0,132641.0,270.0,0.0,0.0,0.0,-12.221,1022.567,-80.14,1.04,-0.28
-3417.0,-84004.0,132643.0,270.0,0.0,0.0,0.0,-14.563,1022.674,-80.01,0.909,-0.33
-3418.0,-84004.0,132645.0,270.0,0.0,0.0,0.0,-16.877,1019.995,-80.05,1.004,-0.32
-3419.0,-84005.0,132647.0,270.0,0.0,0.0,0.0,-16.36,1020.576,-77.64,0.96,-0.31
-3420.0,-84006.0,132648.0,270.0,0.0,0.0,0.0,-16.137,1021.299,-75.33,0.791,-0.32
-3420.0,-84007.0,132650.0,270.0,0.0,0.0,0.0,-16.227,1021.092,-78.29,0.878,-0.31
-3421.0,-84008.0,132652.0,270.0,0.0,0.0,0.0,-13.758,1018.712,-80.85,0.81,-0.31
-3421.0,-84007.0,132654.0,270.0,0.0,0.0,0.0,-11.51,1016.341,-80.0,1.023,-0.32
-3421.0,-84007.0,132655.0,270.0,0.0,0.0,0.0,-12.105,1016.849,-79.76,0.99,-0.31
-3421.0,-84007.0,132657.0,270.0,0.0,0.0,0.0,-12.434,1016.998,-79.93,1.009,-0.31
-3421.0,-84007.0,132659.0,270.0,0.0,0.0,0.0,-12.274,1016.726,-79.9,0.928,-0.31
-3421.0,-84008.0,132661.0,270.0,0.0,0.0,0.0,-9.942,1016.704,-79.85,0.934,-0.31
-3421.0,-84007.0,132662.0,270.0,0.0,0.0,0.0,-9.989,1016.686,-79.84,1.114,-0.31
-3421.0,-84006.0,132664.0,270.0,0.0,0.0,0.0,-12.906,1016.755,-79.91,1.066,-0.31
-3421.0,-84006.0,132666.0,270.0,0.0,0.0,0.0,-12.591,1019.124,-79.94,1.121,-0.31
-3421.0,-84006.0,132668.0,270.0,0.0,0.0,0.0,-12.115,1019.121,-79.93,0.89,-0.31
-3421.0,-84007.0,132670.0,270.0,0.0,0.0,0.0,-12.343,1016.313,-79.88,0.784,-0.31
-3421.0,-84009.0,132671.0,270.0,0.0,0.0,0.0,-12.281,1016.625,-79.89,0.672,-0.31
-3422.0,-84010.0,132673.0,270.0,0.0,0.0,0.0,-12.307,1017.082,-79.89,0.741,-0.31
-3422.0,-84011.0,132675.0,270.0,0.0,0.0,0.0,-12.356,1016.881,-77.5,0.753,-0.31
-3422.0,-84012.0,132677.0,270.0,0.0,0.0,0.0,-12.371,1016.799,-77.56,0.948,-0.31
-3422.0,-84012.0,132678.0,270.0,0.0,0.0,0.0,-12.278,1016.525,-80.48,0.862,-0.31
-3422.0,-84012.0,132679.0,270.0,0.0,0.0,0.0,-12.281,1016.468,-80.2,0.9,-0.17
-3422.0,-84012.0,132680.0,273.0,0.0,0.0,0.0,-12.305,1016.445,-79.72,0.976,-0.08
-3422.0,-84012.0,132681.0,273.0,0.0,0.0,0.0,-12.309,1016.491,-79.94,0.928,-0.07
-3422.0,-84012.0,132681.0,273.0,0.0,0.0,0.0,-9.891,1016.501,-82.23,1.032,-0.09
-3421.0,-84011.0,132683.0,273.0,0.0,0.0,0.0,-9.927,1016.547,-84.59,0.946,-0.31
-3422.0,-84011.0,132685.0,273.0,0.0,0.0,0.0,-12.925,1016.731,-84.02,0.925,-0.37
-3421.0,-84010.0,132687.0,273.0,0.0,0.0,0.0,-10.249,1016.734,-86.07,0.825,-0.35
-3421.0,-84009.0,132689.0,273.0,0.0,0.0,0.0,-9.736,1016.695,-88.57,1.012,-0.34
-3421.0,-84008.0,132690.0,273.0,0.0,0.0,0.0,-12.785,1019.091,-88.04,0.747,-0.26
-3421.0,-84007.0,132692.0,279.0,0.0,0.0,0.0,-12.341,1018.991,-87.74,0.952,-0.3
-3422.0,-84006.0,132693.0,279.0,0.0,0.0,0.0,-11.786,1016.027,-87.82,0.946,-0.34
-3422.0,-84005.0,132695.0,279.0,0.0,0.0,0.0,-11.958,1016.301,-85.41,0.931,-0.32
-3422.0,-84005.0,132697.0,279.0,0.0,0.0,0.0,-11.956,1016.775,-83.09,1.055,-0.31
-3422.0,-84005.0,132699.0,279.0,0.0,0.0,0.0,-11.971,1016.505,-83.66,0.787,-0.31
-3422.0,-84005.0,132700.0,279.0,0.0,0.0,0.0,-11.956,1016.546,-83.98,0.819,-0.31
-3422.0,-84005.0,132702.0,279.0,0.0,0.0,0.0,-12.117,1016.639,-81.42,0.819,-0.32
-3422.0,-84005.0,132704.0,279.0,0.0,0.0,0.0,-14.548,1016.713,-81.56,1.028,-0.32
-3423.0,-84005.0,132706.0,279.0,0.0,0.0,0.0,-16.897,1016.706,-82.13,0.979,-0.31
-3424.0,-84004.0,132707.0,279.0,0.0,0.0,0.0,-16.444,1016.792,-79.52,1.013,-0.31
-3425.0,-84005.0,132709.0,279.0,0.0,0.0,0.0,-16.158,1016.806,-79.61,0.919,-0.31
-3425.0,-84005.0,132711.0,279.0,0.0,0.0,0.0,-13.942,1016.795,-80.09,0.924,-0.31
-3426.0,-84004.0,132713.0,279.0,0.0,0.0,0.0,-13.955,1016.847,-79.87,1.115,-0.31
-3426.0,-84004.0,132714.0,279.0,0.0,0.0,0.0,-16.857,1016.909,-80.0,1.063,-0.31
-3427.0,-84003.0,132716.0,279.0,0.0,0.0,0.0,-16.544,1016.931,-79.95,1.114,-0.31
-3428.0,-84002.0,132718.0,279.0,0.0,0.0,0.0,-15.989,1016.86,-82.37,1.031,-0.31
-3429.0,-84001.0,132720.0,276.0,0.0,0.0,0.0,-16.11,1016.799,-84.69,1.019,-0.31
-3429.0,-84001.0,132721.0,276.0,0.0,0.0,0.0,-13.691,1016.815,-84.05,0.921,-0.31
-3429.0,-84000.0,132723.0,276.0,0.0,0.0,0.0,-11.409,1016.802,-83.71,0.972,-0.31
-3429.0,-84000.0,132725.0,276.0,0.0,0.0,0.0,-11.957,1016.77,-83.88,0.894,-0.31
-3429.0,-83999.0,132726.0,276.0,0.0,0.0,0.0,-12.283,1016.714,-83.85,0.979,-0.31
-3429.0,-83998.0,132728.0,276.0,0.0,0.0,0.0,-12.12,1016.634,-83.86,1.125,-0.31
-3429.0,-83997.0,132730.0,276.0,0.0,0.0,0.0,-12.161,1016.561,-83.84,1.036,-0.31
-3429.0,-83996.0,132732.0,276.0,0.0,0.0,0.0,-12.159,1016.516,-83.85,1.11,-0.31
-3429.0,-83995.0,132733.0,272.0,0.0,0.0,0.0,-12.179,1016.519,-83.85,1.032,-0.31
-3429.0,-83994.0,132735.0,272.0,0.0,0.0,0.0,-12.165,1016.563,-83.84,1.019,-0.31
-3429.0,-83993.0,132736.0,272.0,0.0,0.0,0.0,-12.168,1016.628,-83.85,1.07,-0.17
-3429.0,-83992.0,132737.0,272.0,0.0,0.0,0.0,-14.547,1016.712,-83.89,1.063,-0.22
-3429.0,-83992.0,132738.0,272.0,0.0,0.0,0.0,-14.498,1016.752,-83.89,0.903,-0.16
-3429.0,-83991.0,132740.0,272.0,0.0,0.0,0.0,-11.616,1016.74,-83.84,0.961,-0.24
-3429.0,-83992.0,132741.0,272.0,0.0,0.0,0.0,-11.932,1016.729,-83.84,0.746,-0.25
-3429.0,-83992.0,132742.0,272.0,0.0,0.0,0.0,-12.428,1019.034,-83.9,0.735,-0.21
-3429.0,-83993.0,132743.0,273.0,0.0,0.0,0.0,-12.238,1018.902,-83.89,0.733,-0.07
-3429.0,-83993.0,132744.0,273.0,0.0,0.0,0.0,-12.312,1015.928,-83.84,0.707,-0.13
-3429.0,-83993.0,132744.0,273.0,0.0,0.0,0.0,-12.275,1016.093,-83.84,0.799,-0.06
-3429.0,-83992.0,132746.0,273.0,0.0,0.0,0.0,-12.29,1016.202,-83.85,0.972,-0.2
-3429.0,-83992.0,132746.0,273.0,0.0,0.0,0.0,-12.304,1016.268,-83.85,1.007,-0.04
-3429.0,-83990.0,132748.0,273.0,0.0,0.0,0.0,-12.324,1016.33,-83.85,1.135,-0.33
-3429.0,-83989.0,132750.0,273.0,0.0,0.0,0.0,-12.313,1016.512,-83.85,0.991,-0.36
-3429.0,-83988.0,132751.0,273.0,0.0,0.0,0.0,-12.278,1016.677,-83.85,1.099,-0.18
-3429.0,-83986.0,132753.0,273.0,0.0,0.0,0.0,-12.103,1016.995,-83.85,1.023,-0.12
-3429.0,-83985.0,132754.0,273.0,0.0,0.0,0.0,-12.011,1017.06,-83.85,1.065,-0.21
-3429.0,-83984.0,132757.0,273.0,0.0,0.0,0.0,-11.96,1017.06,-83.85,1.058,-0.41
-3429.0,-83984.0,132758.0,273.0,0.0,0.0,0.0,-12.036,1017.086,-81.46,1.043,-0.3
-3430.0,-83983.0,132760.0,273.0,0.0,0.0,0.0,-12.062,1016.986,-81.51,1.055,-0.36
-3430.0,-83983.0,132762.0,273.0,0.0,0.0,0.0,-11.996,1016.771,-84.44,0.904,-0.29
-3430.0,-83983.0,132763.0,272.0,0.0,0.0,0.0,-12.104,1016.766,-81.76,0.952,-0.28
-3430.0,-83983.0,132765.0,272.0,0.0,0.0,0.0,-12.21,1016.781,-78.95,0.895,-0.33
-3430.0,-83983.0,132766.0,272.0,0.0,0.0,0.0,-12.197,1016.677,-79.76,0.974,-0.19
-3430.0,-83983.0,132768.0,272.0,0.0,0.0,0.0,-12.211,1016.61,-80.01,0.979,-0.22
-3430.0,-83984.0,132769.0,272.0,0.0,0.0,0.0,-12.249,1016.58,-79.87,0.939,-0.16
-3430.0,-83984.0,132770.0,272.0,0.0,0.0,0.0,-12.294,1016.575,-79.88,0.943,-0.24
-3430.0,-83985.0,132772.0,272.0,0.0,0.0,0.0,-12.349,1016.6,-79.89,0.807,-0.38
-3430.0,-83985.0,132774.0,272.0,0.0,0.0,0.0,-12.384,1018.987,-79.95,0.852,-0.3
-3430.0,-83986.0,132776.0,271.0,0.0,0.0,0.0,-12.395,1021.321,-79.98,0.795,-0.36
-3430.0,-83987.0,132778.0,271.0,0.0,0.0,0.0,-12.303,1020.679,-82.36,0.731,-0.29
-3430.0,-83987.0,132779.0,271.0,0.0,0.0,0.0,-12.175,1020.291,-84.69,0.927,-0.28
-3430.0,-83986.0,132781.0,271.0,0.0,0.0,0.0,-12.14,1018.113,-84.06,0.918,-0.33
-3430.0,-83986.0,132782.0,271.0,0.0,0.0,0.0,-12.105,1015.765,-83.71,1.022,-0.18
-3430.0,-83984.0,132783.0,271.0,0.0,0.0,0.0,-12.062,1016.344,-83.89,1.162,-0.22
-3430.0,-83984.0,132784.0,271.0,0.0,0.0,0.0,-9.686,1016.645,-83.8,0.831,-0.16
-3429.0,-83983.0,132786.0,271.0,0.0,0.0,0.0,-7.399,1016.547,-83.77,0.991,-0.24
-3429.0,-83983.0,132788.0,272.0,0.0,0.0,0.0,-8.043,1016.692,-83.76,0.889,-0.38
-3428.0,-83984.0,132789.0,272.0,0.0,0.0,0.0,-8.492,1016.845,-81.39,0.797,-0.3
-3428.0,-83984.0,132791.0,272.0,0.0,0.0,0.0,-8.444,1016.98,-79.05,1.045,-0.36
-3427.0,-83984.0,132793.0,272.0,0.0,0.0,0.0,-8.472,1016.921,-79.64,0.881,-0.29
-3427.0,-83985.0,132795.0,272.0,0.0,0.0,0.0,-10.789,1016.874,-79.99,0.868,-0.28
-3427.0,-83985.0,132797.0,272.0,0.0,0.0,0.0,-10.702,1016.813,-79.82,1.01,-0.33
-3426.0,-83986.0,132798.0,272.0,0.0,0.0,0.0,-7.726,1016.718,-79.81,0.694,-0.32
-3426.0,-83987.0,132799.0,272.0,0.0,0.0,0.0,-10.348,1016.699,-79.85,0.941,-0.17
-3426.0,-83987.0,132801.0,273.0,0.0,0.0,0.0,-13.132,1016.695,-79.92,0.955,-0.22
-3426.0,-83987.0,132802.0,273.0,0.0,0.0,0.0,-12.343,1016.67,-79.89,0.916,-0.16
-3426.0,-83986.0,132803.0,273.0,0.0,0.0,0.0,-12.134,1016.668,-79.89,1.191,-0.24
-3426.0,-83986.0,132805.0,273.0,0.0,0.0,0.0,-12.336,1016.694,-79.89,1.016,-0.39
-3426.0,-83985.0,132807.0,273.0,0.0,0.0,0.0,-12.307,1016.665,-82.28,1.058,-0.3
-3426.0,-83985.0,132809.0,273.0,0.0,0.0,0.0,-12.26,1016.663,-84.62,0.901,-0.36
-3426.0,-83984.0,132811.0,273.0,0.0,0.0,0.0,-12.256,1016.772,-84.03,0.925,-0.29
-3426.0,-83984.0,132812.0,273.0,0.0,0.0,0.0,-12.23,1019.186,-83.77,0.894,-0.28
-3425.0,-83984.0,132814.0,277.0,0.0,0.0,0.0,-12.219,1021.564,-81.59,0.985,-0.33
-3425.0,-83984.0,132816.0,277.0,0.0,0.0,0.0,-12.24,1021.024,-79.2,1.112,-0.32
-3425.0,-83983.0,132817.0,277.0,0.0,0.0,0.0,-12.109,1020.538,-82.18,1.028,-0.17
-3424.0,-83982.0,132818.0,277.0,0.0,0.0,0.0,-12.007,1020.539,-84.81,0.954,-0.22
-3424.0,-83983.0,132819.0,277.0,0.0,0.0,0.0,-12.125,1020.572,-81.68,0.781,-0.16
-3423.0,-83985.0,132821.0,277.0,0.0,0.0,0.0,-12.254,1020.666,-79.08,0.615,-0.24
-3423.0,-83987.0,132823.0,277.0,0.0,0.0,0.0,-12.293,1020.612,-79.82,0.732,-0.39
-3423.0,-83987.0,132825.0,277.0,0.0,0.0,0.0,-12.347,1020.576,-80.11,0.893,-0.3
-3424.0,-83987.0,132827.0,278.0,0.0,0.0,0.0,-12.392,1020.506,-79.93,1.023,-0.36
-3424.0,-83986.0,132828.0,278.0,0.0,0.0,0.0,-12.386,1020.425,-79.96,1.158,-0.29
-3424.0,-83986.0,132830.0,278.0,0.0,0.0,0.0,-12.355,1018.056,-79.92,1.055,-0.28
-3424.0,-83985.0,132832.0,278.0,0.0,0.0,0.0,-12.291,1018.163,-79.93,1.04,-0.33
-3424.0,-83986.0,132834.0,278.0,0.0,0.0,0.0,-12.216,1021.164,-79.97,0.864,-0.32
-3424.0,-83986.0,132835.0,278.0,0.0,0.0,0.0,-12.179,1021.047,-79.97,0.941,-0.31
-3424.0,-83987.0,132837.0,278.0,0.0,0.0,0.0,-12.166,1020.708,-79.97,0.904,-0.32
-3424.0,-83987.0,132839.0,278.0,0.0,0.0,0.0,-12.091,1020.89,-82.36,0.974,-0.31
-3424.0,-83985.0,132841.0,274.0,0.0,0.0,0.0,-12.032,1020.736,-84.69,1.112,-0.31
-3424.0,-83984.0,132842.0,274.0,0.0,0.0,0.0,-12.079,1020.716,-84.1,1.024,-0.32
-3423.0,-83984.0,132844.0,274.0,0.0,0.0,0.0,-12.197,1020.702,-81.41,1.094,-0.31
-3423.0,-83984.0,132846.0,274.0,0.0,0.0,0.0,-12.294,1020.738,-79.24,1.022,-0.31
-3423.0,-83983.0,132848.0,274.0,0.0,0.0,0.0,-12.215,1020.605,-82.18,1.011,-0.31
-3423.0,-83983.0,132849.0,274.0,0.0,0.0,0.0,-12.216,1020.588,-82.44,1.057,-0.31
-3423.0,-83983.0,132851.0,274.0,0.0,0.0,0.0,-12.321,1020.717,-79.33,0.906,-0.31
-3423.0,-83983.0,132853.0,274.0,0.0,0.0,0.0,-12.307,1020.712,-79.67,0.942,-0.31
-3423.0,-83984.0,132855.0,273.0,0.0,0.0,0.0,-12.285,1020.692,-80.13,0.886,-0.31
-3423.0,-83984.0,132857.0,273.0,0.0,0.0,0.0,-12.283,1020.675,-79.93,0.963,-0.31
-3423.0,-83984.0,132858.0,273.0,0.0,0.0,0.0,-12.275,1020.632,-79.98,0.97,-0.31
-3424.0,-83985.0,132860.0,273.0,0.0,0.0,0.0,-12.284,1018.239,-79.9,0.933,-0.31
-3424.0,-83985.0,132862.0,273.0,0.0,0.0,0.0,-12.293,1015.91,-79.89,0.935,-0.31
-3424.0,-83986.0,132864.0,273.0,0.0,0.0,0.0,-12.289,1016.477,-79.88,0.797,-0.31
-3424.0,-83986.0,132865.0,273.0,0.0,0.0,0.0,-12.288,1016.784,-79.89,0.989,-0.31
-3424.0,-83986.0,132867.0,273.0,0.0,0.0,0.0,-12.291,1016.632,-79.89,0.882,-0.31
-3424.0,-83986.0,132869.0,272.0,0.0,0.0,0.0,-12.293,1016.691,-79.89,1.027,-0.31
-3424.0,-83985.0,132871.0,272.0,0.0,0.0,0.0,-12.295,1016.699,-79.89,1.089,-0.31
-3424.0,-83986.0,132872.0,272.0,0.0,0.0,0.0,-10.001,1016.81,-77.46,0.993,-0.31
-3424.0,-83986.0,132874.0,272.0,0.0,0.0,0.0,-10.054,1016.84,-77.51,1.105,-0.31
-3424.0,-83986.0,132876.0,272.0,0.0,0.0,0.0,-12.864,1016.823,-80.49,0.881,-0.31
-3424.0,-83986.0,132878.0,272.0,0.0,0.0,0.0,-12.593,1016.892,-80.2,0.91,-0.31
-3424.0,-83987.0,132880.0,272.0,0.0,0.0,0.0,-12.134,1016.939,-79.72,0.899,-0.31
-3424.0,-83988.0,132881.0,272.0,0.0,0.0,0.0,-12.326,1019.276,-79.98,0.823,-0.31
-3424.0,-83987.0,132883.0,274.0,0.0,0.0,0.0,-9.807,1021.414,-82.32,1.013,-0.31
-3423.0,-83988.0,132885.0,274.0,0.0,0.0,0.0,-7.452,1018.304,-84.58,0.725,-0.31
-3423.0,-83987.0,132887.0,274.0,0.0,0.0,0.0,-10.336,1015.589,-86.35,0.917,-0.31
-3423.0,-83986.0,132888.0,274.0,0.0,0.0,0.0,-12.906,1016.215,-88.46,0.931,-0.31
-3423.0,-83985.0,132890.0,274.0,0.0,0.0,0.0,-9.857,1018.844,-85.65,0.917,-0.31
-3422.0,-83984.0,132892.0,274.0,0.0,0.0,0.0,-9.719,1021.062,-82.99,1.182,-0.31
-3423.0,-83983.0,132893.0,274.0,0.0,0.0,0.0,-12.766,1020.534,-83.81,1.009,-0.31
-3423.0,-83982.0,132895.0,274.0,0.0,0.0,0.0,-12.466,1017.948,-84.0,1.053,-0.31
-3423.0,-83981.0,132897.0,277.0,0.0,0.0,0.0,-12.005,1015.94,-83.8,1.034,-0.31
-3423.0,-83981.0,132899.0,277.0,0.0,0.0,0.0,-12.199,1016.568,-83.84,1.011,-0.31
-3423.0,-83980.0,132900.0,277.0,0.0,0.0,0.0,-12.161,1016.972,-83.84,1.047,-0.31
-3423.0,-83979.0,132902.0,277.0,0.0,0.0,0.0,-12.183,1016.835,-83.86,1.053,-0.31
-3423.0,-83979.0,132904.0,277.0,0.0,0.0,0.0,-12.149,1016.888,-83.84,0.884,-0.31
-3423.0,-83978.0,132906.0,277.0,0.0,0.0,0.0,-9.795,1016.816,-83.8,0.941,-0.31
-3422.0,-83978.0,132907.0,277.0,0.0,0.0,0.0,-7.474,1016.741,-83.76,0.879,-0.31
-3421.0,-83978.0,132909.0,277.0,0.0,0.0,0.0,-8.052,1016.647,-83.77,0.959,-0.31
-3421.0,-83976.0,132911.0,276.0,0.0,0.0,0.0,-8.362,1016.556,-83.78,1.115,-0.31
-3420.0,-83976.0,132912.0,276.0,0.0,0.0,0.0,-8.193,1016.475,-83.77,1.021,-0.31
-3420.0,-83974.0,132914.0,276.0,0.0,0.0,0.0,-8.236,1016.43,-83.77,1.087,-0.17
-3419.0,-83974.0,132915.0,276.0,0.0,0.0,0.0,-8.307,1016.53,-81.38,1.015,-0.22
-3419.0,-83974.0,132915.0,276.0,0.0,0.0,0.0,-10.707,1016.609,-81.48,1.004,-0.02
-3419.0,-83972.0,132916.0,276.0,0.0,0.0,0.0,-12.943,1016.603,-84.45,1.052,-0.15
-3419.0,-83972.0,132918.0,276.0,0.0,0.0,0.0,-12.415,1016.681,-84.16,1.046,-0.37
-3420.0,-83972.0,132923.0,271.0,0.0,0.0,0.0,-12.464,1016.844,-81.5,0.943,-0.59
-3420.0,-83972.0,132925.0,271.0,0.0,0.0,0.0,-12.41,1016.831,-81.5,0.874,-0.35
-3420.0,-83972.0,132926.0,271.0,0.0,0.0,0.0,-12.325,1016.764,-82.07,0.958,-0.26
-3420.0,-83971.0,132928.0,271.0,0.0,0.0,0.0,-12.191,1016.705,-81.8,1.114,-0.32
-3420.0,-83970.0,132930.0,271.0,0.0,0.0,0.0,-12.002,1016.545,-84.27,1.019,-0.24
-3420.0,-83969.0,132931.0,271.0,0.0,0.0,0.0,-12.005,1016.59,-81.81,1.086,-0.35
-3420.0,-83969.0,132933.0,271.0,0.0,0.0,0.0,-12.088,1016.697,-78.94,1.014,-0.36
-3420.0,-83969.0,132935.0,271.0,0.0,0.0,0.0,-12.109,1016.711,-79.78,1.001,-0.29
-3420.0,-83969.0,132937.0,270.0,0.0,0.0,0.0,-12.172,1016.768,-79.99,1.051,-0.3
-3420.0,-83968.0,132939.0,270.0,0.0,0.0,0.0,-12.17,1016.747,-82.26,1.044,-0.32
-3420.0,-83967.0,132940.0,270.0,0.0,0.0,0.0,-12.154,1016.701,-84.61,1.029,-0.31
-3420.0,-83967.0,132942.0,270.0,0.0,0.0,0.0,-9.842,1016.719,-83.97,0.891,-0.32
-3419.0,-83967.0,132944.0,270.0,0.0,0.0,0.0,-7.553,1016.701,-83.65,0.936,-0.32
-3419.0,-83967.0,132946.0,270.0,0.0,0.0,0.0,-8.123,1019.019,-83.85,0.873,-0.31
-3418.0,-83966.0,132949.0,270.0,0.0,0.0,0.0,-10.589,1020.638,-83.91,0.964,-0.32
-3418.0,-83966.0,132950.0,272.0,0.0,0.0,0.0,-13.011,1020.381,-81.54,0.921,-0.17
-3418.0,-83966.0,132951.0,272.0,0.0,0.0,0.0,-12.394,1020.497,-81.6,0.927,-0.22
-3418.0,-83966.0,132952.0,272.0,0.0,0.0,0.0,-12.005,1020.333,-84.51,0.935,-0.16
-3418.0,-83965.0,132954.0,272.0,0.0,0.0,0.0,-12.198,1018.024,-84.18,1.075,-0.24
-3418.0,-83964.0,132956.0,272.0,0.0,0.0,0.0,-12.142,1015.678,-86.05,1.033,-0.39
-3417.0,-83963.0,132958.0,272.0,0.0,0.0,0.0,-12.185,1016.316,-86.22,0.95,-0.3
-3417.0,-83963.0,132960.0,272.0,0.0,0.0,0.0,-12.279,1016.785,-83.25,0.911,-0.36
-3417.0,-83963.0,132961.0,272.0,0.0,0.0,0.0,-12.269,1016.665,-83.56,0.843,-0.29
-3418.0,-83962.0,132963.0,273.0,0.0,0.0,0.0,-12.125,1016.646,-86.39,0.969,-0.42
-3418.0,-83960.0,132966.0,273.0,0.0,0.0,0.0,-11.987,1016.555,-88.53,1.115,-0.42
-3418.0,-83959.0,132968.0,273.0,0.0,0.0,0.0,-11.946,1016.558,-88.0,0.869,-0.48
-3418.0,-83959.0,132970.0,273.0,0.0,0.0,0.0,-11.901,1016.518,-87.65,0.847,-0.38
-3418.0,-83959.0,132972.0,273.0,0.0,0.0,0.0,-11.849,1016.486,-87.86,0.752,-0.24
-3418.0,-83959.0,132973.0,273.0,0.0,0.0,0.0,-11.826,1016.469,-87.8,0.763,-0.33
-3418.0,-83958.0,132975.0,273.0,0.0,0.0,0.0,-11.821,1018.775,-87.85,0.906,-0.26
-3418.0,-83958.0,132977.0,273.0,0.0,0.0,0.0,-11.952,1018.759,-85.45,0.86,-0.34
-3418.0,-83958.0,132979.0,271.0,0.0,0.0,0.0,-12.114,1018.268,-83.12,0.808,-0.35
-3418.0,-83959.0,132980.0,271.0,0.0,0.0,0.0,-12.183,1018.443,-83.71,0.83,-0.3
-3418.0,-83958.0,132982.0,271.0,0.0,0.0,0.0,-12.258,1016.035,-83.96,0.972,-0.31
-3418.0,-83957.0,132984.0,271.0,0.0,0.0,0.0,-12.303,1016.141,-83.8,1.071,-0.32
-3418.0,-83956.0,132985.0,271.0,0.0,0.0,0.0,-12.306,1016.714,-83.85,1.097,-0.31
-3418.0,-83955.0,132987.0,271.0,0.0,0.0,0.0,-12.292,1016.557,-83.84,1.066,-0.32
-3418.0,-83955.0,132989.0,271.0,0.0,0.0,0.0,-12.247,1019.09,-83.9,0.971,-0.32
-3418.0,-83955.0,132991.0,271.0,0.0,0.0,0.0,-12.197,1021.448,-83.93,0.868,-0.31
-3417.0,-83955.0,132992.0,270.0,0.0,0.0,0.0,-12.163,1020.982,-83.93,0.811,-0.31
-3418.0,-83956.0,132996.0,270.0,0.0,0.0,0.0,-12.195,1020.888,-81.53,0.796,-0.31
-3418.0,-83957.0,132998.0,270.0,0.0,0.0,0.0,-12.264,1020.821,-79.2,0.882,-0.31
-3418.0,-83957.0,133000.0,270.0,0.0,0.0,0.0,-12.246,1020.656,-79.79,0.987,-0.31
-3418.0,-83958.0,133001.0,270.0,0.0,0.0,0.0,-12.243,1020.491,-80.1,0.909,-0.31
-3418.0,-83958.0,133003.0,270.0,0.0,0.0,0.0,-12.258,1020.43,-79.93,0.988,-0.31
-3418.0,-83959.0,133005.0,270.0,0.0,0.0,0.0,-12.345,1020.503,-77.58,0.904,-0.31
-3418.0,-83961.0,133007.0,273.0,0.0,0.0,0.0,-12.352,1020.554,-77.62,0.755,-0.45
-3418.0,-83962.0,133010.0,273.0,0.0,0.0,0.0,-12.259,1020.541,-80.57,0.708,-0.41
-3418.0,-83964.0,133012.0,273.0,0.0,0.0,0.0,-9.888,1020.611,-80.23,0.682,-0.47
-3418.0,-83965.0,133014.0,273.0,0.0,0.0,0.0,-9.933,1020.669,-79.75,0.834,-0.39
-3418.0,-83964.0,133016.0,273.0,0.0,0.0,0.0,-12.794,1020.672,-80.03,1.027,-0.24
-3418.0,-83964.0,133018.0,273.0,0.0,0.0,0.0,-12.477,1020.623,-79.96,1.144,-0.33
-3418.0,-83963.0,133019.0,273.0,0.0,0.0,0.0,-11.921,1018.149,-82.33,1.039,-0.26
-3418.0,-83962.0,133021.0,273.0,0.0,0.0,0.0,-12.09,1015.795,-84.59,1.031,-0.34
-3418.0,-83963.0,133023.0,272.0,0.0,0.0,0.0,-12.184,1016.562,-81.64,0.839,-0.35
-3418.0,-83963.0,133025.0,272.0,0.0,0.0,0.0,-12.283,1016.984,-81.39,0.922,-0.3
-3418.0,-83963.0,133025.0,272.0,0.0,0.0,0.0,-12.204,1016.793,-84.47,0.893,-0.16
-3418.0,-83962.0,133027.0,272.0,0.0,0.0,0.0,-12.266,1016.878,-84.15,0.958,-0.23
-3418.0,-83962.0,133028.0,272.0,0.0,0.0,0.0,-9.926,1016.828,-83.64,0.95,-0.16
-3417.0,-83962.0,133029.0,272.0,0.0,0.0,0.0,-7.605,1016.742,-83.79,0.768,-0.24
-3417.0,-83962.0,133031.0,272.0,0.0,0.0,0.0,-10.585,1016.67,-83.81,0.824,-0.39
-3417.0,-83964.0,133033.0,272.0,0.0,0.0,0.0,-13.214,1016.612,-83.88,0.627,-0.29
-3417.0,-83963.0,133035.0,272.0,0.0,0.0,0.0,-12.444,1016.532,-83.83,0.901,-0.36
-3418.0,-83963.0,133037.0,272.0,0.0,0.0,0.0,-12.136,1016.452,-83.85,0.942,-0.29
-3418.0,-83962.0,133038.0,272.0,0.0,0.0,0.0,-12.224,1016.4,-83.85,0.995,-0.28
-3418.0,-83962.0,133040.0,272.0,0.0,0.0,0.0,-12.204,1016.475,-81.45,0.982,-0.33
-3418.0,-83963.0,133042.0,272.0,0.0,0.0,0.0,-12.142,1016.521,-81.51,0.717,-0.32
-3417.0,-83964.0,133043.0,272.0,0.0,0.0,0.0,-9.615,1018.836,-84.44,0.805,-0.31
-3417.0,-83965.0,133045.0,272.0,0.0,0.0,0.0,-9.683,1021.245,-84.2,0.648,-0.32
-3417.0,-83965.0,133047.0,272.0,0.0,0.0,0.0,-12.634,1018.435,-83.72,0.76,-0.31
-3417.0,-83966.0,133049.0,274.0,0.0,0.0,0.0,-12.39,1015.838,-83.88,0.844,-0.31
-3417.0,-83966.0,133050.0,274.0,0.0,0.0,0.0,-11.953,1016.535,-83.83,0.834,-0.32
-3417.0,-83965.0,133052.0,274.0,0.0,0.0,0.0,-9.806,1019.05,-83.87,1.045,-0.31
-3416.0,-83964.0,133054.0,274.0,0.0,0.0,0.0,-7.445,1021.114,-83.84,1.033,-0.31
-3415.0,-83963.0,133056.0,274.0,0.0,0.0,0.0,-10.465,1018.239,-83.85,1.044,-0.31
-3415.0,-83962.0,133058.0,274.0,0.0,0.0,0.0,-13.078,1015.727,-83.85,1.078,-0.31
-3415.0,-83962.0,133059.0,274.0,0.0,0.0,0.0,-9.96,1016.557,-83.8,0.977,-0.31
-3414.0,-83961.0,133061.0,274.0,0.0,0.0,0.0,-7.371,1016.886,-83.76,1.004,-0.31
-3414.0,-83961.0,133063.0,276.0,0.0,0.0,0.0,-8.1,1016.834,-83.77,0.902,-0.31
-3413.0,-83961.0,133064.0,276.0,0.0,0.0,0.0,-8.454,1016.995,-81.39,0.929,-0.31
-3413.0,-83962.0,133066.0,276.0,0.0,0.0,0.0,-10.725,1017.083,-79.09,0.864,-0.31
-3413.0,-83963.0,133068.0,276.0,0.0,0.0,0.0,-13.049,1017.027,-79.73,0.805,-0.31
-3413.0,-83963.0,133070.0,276.0,0.0,0.0,0.0,-12.46,1016.881,-80.02,0.853,-0.31
-3413.0,-83965.0,133072.0,276.0,0.0,0.0,0.0,-12.172,1016.763,-79.85,0.609,-0.31
-3414.0,-83967.0,133073.0,276.0,0.0,0.0,0.0,-12.324,1016.643,-79.89,0.75,-0.31
-3414.0,-83968.0,133075.0,276.0,0.0,0.0,0.0,-12.304,1014.19,-79.84,0.696,-0.31
-3414.0,-83969.0,133077.0,279.0,0.0,0.0,0.0,-12.317,1014.165,-79.86,0.877,-0.31
-3414.0,-83969.0,133078.0,279.0,0.0,0.0,0.0,-12.295,1014.647,-79.85,0.847,-0.17
-3414.0,-83970.0,133079.0,279.0,0.0,0.0,0.0,-12.329,1012.084,-79.8,0.875,-0.22
-3414.0,-83970.0,133080.0,279.0,0.0,0.0,0.0,-12.322,1014.606,-79.86,0.932,-0.02
-3414.0,-83970.0,133081.0,279.0,0.0,0.0,0.0,-12.328,1017.523,-79.91,0.894,-0.15
-3414.0,-83969.0,133082.0,279.0,0.0,0.0,0.0,-12.303,1016.775,-82.28,1.139,-0.23
-3414.0,-83968.0,133083.0,279.0,0.0,0.0,0.0,-12.297,1014.249,-84.57,1.003,-0.23
-3414.0,-83968.0,133086.0,279.0,0.0,0.0,0.0,-12.364,1014.568,-83.98,0.906,-0.44
-3414.0,-83968.0,133087.0,276.0,0.0,0.0,0.0,-12.371,1017.534,-83.73,0.915,-0.28
-3415.0,-83968.0,133089.0,276.0,0.0,0.0,0.0,-12.325,1017.295,-83.9,0.835,-0.33
-3415.0,-83968.0,133091.0,276.0,0.0,0.0,0.0,-12.241,1016.794,-83.84,0.955,-0.31
-3415.0,-83967.0,133092.0,276.0,0.0,0.0,0.0,-12.13,1016.954,-83.86,1.11,-0.29
-3415.0,-83966.0,133094.0,276.0,0.0,0.0,0.0,-12.034,1016.786,-83.84,0.999,-0.32
-3415.0,-83966.0,133096.0,276.0,0.0,0.0,0.0,-11.971,1016.706,-83.85,0.928,-0.33
-3415.0,-83965.0,133098.0,276.0,0.0,0.0,0.0,-11.951,1016.613,-83.85,0.903,-0.31
-3415.0,-83965.0,133099.0,276.0,0.0,0.0,0.0,-14.341,1016.622,-83.89,0.972,-0.31
-3416.0,-83964.0,133101.0,271.0,0.0,0.0,0.0,-14.408,1016.702,-81.5,1.058,-0.31
-3416.0,-83963.0,133103.0,271.0,0.0,0.0,0.0,-11.633,1016.753,-79.11,1.265,-0.31
-3416.0,-83963.0,133105.0,271.0,0.0,0.0,0.0,-11.949,1016.752,-79.71,1.073,-0.32
-3416.0,-83963.0,133106.0,271.0,0.0,0.0,0.0,-12.445,1019.13,-80.07,0.999,-0.31
-3416.0,-83963.0,133108.0,271.0,0.0,0.0,0.0,-12.271,1019.146,-79.89,1.011,-0.31
-3416.0,-83964.0,133110.0,271.0,0.0,0.0,0.0,-14.73,1016.363,-79.93,0.787,-0.31
-3417.0,-83964.0,133112.0,271.0,0.0,0.0,0.0,-16.931,1018.951,-82.4,0.966,-0.31
-3417.0,-83964.0,133114.0,271.0,0.0,0.0,0.0,-16.277,1021.596,-84.8,0.758,-0.31
-3418.0,-83964.0,133115.0,269.0,0.0,0.0,0.0,-15.98,1018.402,-84.13,0.825,-0.31
-3418.0,-83964.0,133117.0,269.0,0.0,0.0,0.0,-16.157,1015.763,-83.78,0.929,-0.31
-3418.0,-83964.0,133119.0,269.0,0.0,0.0,0.0,-16.098,1016.358,-83.96,0.784,-0.31
-3418.0,-83965.0,133121.0,269.0,0.0,0.0,0.0,-16.173,1016.646,-81.53,0.903,-0.31
-3419.0,-83966.0,133123.0,269.0,0.0,0.0,0.0,-16.229,1016.511,-79.2,0.734,-0.31
-3419.0,-83968.0,133124.0,269.0,0.0,0.0,0.0,-13.849,1016.496,-79.73,0.66,-0.31
-3418.0,-83968.0,133126.0,269.0,0.0,0.0,0.0,-11.516,1016.512,-80.01,0.912,-0.31
-3419.0,-83969.0,133128.0,269.0,0.0,0.0,0.0,-12.108,1016.581,-79.85,0.896,-0.31
-3418.0,-83969.0,133130.0,270.0,0.0,0.0,0.0,-12.419,1016.613,-79.89,0.99,-0.31
-3417.0,-83968.0,133133.0,270.0,0.0,0.0,0.0,-12.22,1016.669,-82.29,0.939,-0.31
-3416.0,-83967.0,133135.0,270.0,0.0,0.0,0.0,-12.136,1016.682,-84.61,1.053,-0.31
-3417.0,-83966.0,133137.0,270.0,0.0,0.0,0.0,-12.173,1016.813,-84.03,1.021,-0.31
-3417.0,-83966.0,133139.0,270.0,0.0,0.0,0.0,-12.169,1016.913,-83.72,0.842,-0.31
-3417.0,-83966.0,133140.0,270.0,0.0,0.0,0.0,-12.165,1016.952,-83.89,0.793,-0.31
-3417.0,-83967.0,133142.0,270.0,0.0,0.0,0.0,-12.169,1016.942,-83.85,0.772,-0.31
-3417.0,-83967.0,133144.0,270.0,0.0,0.0,0.0,-9.803,1014.496,-83.76,0.77,-0.31
-3416.0,-83968.0,133146.0,270.0,0.0,0.0,0.0,-7.562,1014.485,-81.31,0.876,-0.31
-3414.0,-83969.0,133148.0,270.0,0.0,0.0,0.0,-8.222,1014.945,-79.01,0.836,-0.31
-3413.0,-83970.0,133149.0,270.0,0.0,0.0,0.0,-8.521,1012.219,-79.56,0.65,-0.31
-3412.0,-83972.0,133151.0,270.0,0.0,0.0,0.0,-10.717,1012.254,-79.9,0.721,-0.31
-3412.0,-83973.0,133153.0,270.0,0.0,0.0,0.0,-13.084,1012.76,-79.79,0.657,-0.31
-3412.0,-83974.0,133155.0,270.0,0.0,0.0,0.0,-12.488,1012.538,-79.82,0.74,-0.31
-3411.0,-83975.0,133156.0,270.0,0.0,0.0,0.0,-12.188,1014.976,-79.85,0.901,-0.17
-3411.0,-83975.0,133158.0,268.0,0.0,0.0,0.0,-12.224,1016.7,-82.28,1.009,-0.16
-3411.0,-83975.0,133160.0,268.0,0.0,0.0,0.0,-12.265,1016.475,-82.22,0.89,-0.24
-3411.0,-83976.0,133162.0,268.0,0.0,0.0,0.0,-12.362,1019.197,-79.35,0.944,-0.39
-3411.0,-83976.0,133164.0,268.0,0.0,0.0,0.0,-12.312,1021.471,-82.07,0.909,-0.3
-3411.0,-83976.0,133166.0,268.0,0.0,0.0,0.0,-12.232,1020.892,-84.87,0.895,-0.37
-3411.0,-83975.0,133167.0,268.0,0.0,0.0,0.0,-12.234,1020.661,-84.06,1.065,-0.29
-3410.0,-83974.0,133169.0,268.0,0.0,0.0,0.0,-9.817,1020.845,-83.76,1.02,-0.28
-3409.0,-83973.0,133171.0,268.0,0.0,0.0,0.0,-7.439,1018.405,-83.81,1.07,-0.33
-3409.0,-83973.0,133173.0,268.0,0.0,0.0,0.0,-7.982,1016.088,-83.77,0.846,-0.32
-3408.0,-83973.0,133174.0,268.0,0.0,0.0,0.0,-8.253,1016.619,-83.78,0.888,-0.31
-3408.0,-83973.0,133176.0,268.0,0.0,0.0,0.0,-8.076,1016.89,-83.76,0.866,-0.32
-3407.0,-83971.0,133179.0,268.0,0.0,0.0,0.0,-8.145,1016.625,-83.77,1.088,-0.31
-3406.0,-83971.0,133181.0,268.0,0.0,0.0,0.0,-8.272,1016.631,-81.38,0.998,-0.32
-3405.0,-83971.0,133183.0,268.0,0.0,0.0,0.0,-8.365,1016.686,-79.05,1.062,-0.31
-3405.0,-83972.0,133185.0,269.0,0.0,0.0,0.0,-8.373,1016.65,-79.64,0.845,-0.31
-3404.0,-83972.0,133187.0,269.0,0.0,0.0,0.0,-8.304,1016.594,-82.33,0.888,-0.32
-3404.0,-83972.0,133188.0,269.0,0.0,0.0,0.0,-8.236,1016.568,-84.5,0.871,-0.31
-3404.0,-83972.0,133190.0,269.0,0.0,0.0,0.0,-10.63,1016.637,-84.0,0.8,-0.31
-3404.0,-83971.0,133192.0,269.0,0.0,0.0,0.0,-12.956,1016.668,-83.73,0.988,-0.32
-3404.0,-83971.0,133194.0,269.0,0.0,0.0,0.0,-12.356,1016.623,-83.9,0.839,-0.31
-3404.0,-83971.0,133195.0,269.0,0.0,0.0,0.0,-12.045,1016.578,-83.84,0.986,-0.31
-3404.0,-83970.0,133197.0,269.0,0.0,0.0,0.0,-12.193,1018.891,-83.9,1.064,-0.31
-3404.0,-83970.0,133199.0,270.0,0.0,0.0,0.0,-12.145,1018.83,-83.89,0.821,-0.31
-3404.0,-83970.0,133200.0,270.0,0.0,0.0,0.0,-12.169,1015.982,-83.84,0.985,-0.31
-3404.0,-83970.0,133202.0,270.0,0.0,0.0,0.0,-9.775,1016.282,-83.8,0.84,-0.31
-3404.0,-83970.0,133204.0,270.0,0.0,0.0,0.0,-7.546,1016.862,-81.37,0.898,-0.31
-3403.0,-83970.0,133206.0,270.0,0.0,0.0,0.0,-10.584,1016.793,-79.09,0.96,-0.31
-3403.0,-83971.0,133208.0,270.0,0.0,0.0,0.0,-10.814,1016.832,-79.68,0.906,-0.31
-3403.0,-83971.0,133209.0,270.0,0.0,0.0,0.0,-10.109,1016.775,-79.98,0.898,-0.31
-3403.0,-83972.0,133211.0,270.0,0.0,0.0,0.0,-10.385,1016.798,-79.81,0.919,-0.31
-3403.0,-83971.0,133213.0,271.0,0.0,0.0,0.0,-10.33,1014.416,-79.81,1.05,-0.31
-3403.0,-83971.0,133215.0,271.0,0.0,0.0,0.0,-10.376,1012.112,-79.75,1.007,-0.31
-3402.0,-83970.0,133216.0,271.0,0.0,0.0,0.0,-7.899,1012.589,-82.13,1.077,-0.31
-3401.0,-83970.0,133218.0,271.0,0.0,0.0,0.0,-7.85,1015.167,-84.5,0.983,-0.31
-3401.0,-83969.0,133220.0,271.0,0.0,0.0,0.0,-8.42,1017.36,-83.97,0.978,-0.31
-3400.0,-83968.0,133222.0,271.0,0.0,0.0,0.0,-8.172,1016.878,-83.65,1.024,-0.31
-3400.0,-83967.0,133223.0,271.0,0.0,0.0,0.0,-8.254,1016.591,-83.81,1.017,-0.31
-3400.0,-83967.0,133225.0,271.0,0.0,0.0,0.0,-10.591,1016.806,-83.82,1.008,-0.31
-3400.0,-83967.0,133227.0,272.0,0.0,0.0,0.0,-10.563,1016.736,-83.83,0.867,-0.31
-3399.0,-83967.0,133229.0,272.0,0.0,0.0,0.0,-10.023,1016.716,-83.8,0.91,-0.31
-3399.0,-83967.0,133230.0,272.0,0.0,0.0,0.0,-12.684,1019.117,-81.52,0.849,-0.17
-3400.0,-83967.0,133231.0,272.0,0.0,0.0,0.0,-12.646,1021.446,-79.22,0.937,-0.22
-3399.0,-83967.0,133232.0,272.0,0.0,0.0,0.0,-12.118,1020.776,-79.79,1.084,-0.16
-3400.0,-83967.0,133233.0,272.0,0.0,0.0,0.0,-12.357,1020.406,-80.1,0.991,-0.24
-3400.0,-83966.0,133236.0,272.0,0.0,0.0,0.0,-12.261,1018.125,-82.27,1.061,-0.39
-3400.0,-83967.0,133238.0,272.0,0.0,0.0,0.0,-12.352,1015.809,-82.21,0.842,-0.44
-3400.0,-83968.0,133240.0,272.0,0.0,0.0,0.0,-12.422,1016.562,-79.29,0.88,-0.46
-3400.0,-83969.0,133243.0,272.0,0.0,0.0,0.0,-12.313,1016.813,-81.99,0.721,-0.45
-3400.0,-83969.0,133245.0,272.0,0.0,0.0,0.0,-12.227,1016.684,-82.39,0.847,-0.36
-3401.0,-83969.0,133246.0,272.0,0.0,0.0,0.0,-12.141,1016.745,-81.65,0.919,-0.26
-3401.0,-83969.0,133248.0,272.0,0.0,0.0,0.0,-11.966,1016.586,-84.32,0.918,-0.34
-3401.0,-83967.0,133250.0,272.0,0.0,0.0,0.0,-11.925,1016.553,-84.18,1.132,-0.26
-3401.0,-83968.0,133251.0,272.0,0.0,0.0,0.0,-14.409,1016.628,-81.35,0.823,-0.34
-3402.0,-83968.0,133253.0,272.0,0.0,0.0,0.0,-16.866,1016.738,-79.26,0.935,-0.34
-3403.0,-83969.0,133255.0,272.0,0.0,0.0,0.0,-16.352,1016.765,-79.77,0.843,-0.3
-3404.0,-83969.0,133257.0,272.0,0.0,0.0,0.0,-16.121,1016.806,-80.12,0.906,-0.31
-3404.0,-83969.0,133259.0,272.0,0.0,0.0,0.0,-16.358,1016.861,-79.91,1.094,-0.32
-3405.0,-83969.0,133260.0,272.0,0.0,0.0,0.0,-16.279,1014.445,-82.31,1.002,-0.31
-3406.0,-83968.0,133263.0,272.0,0.0,0.0,0.0,-13.934,1012.138,-82.16,1.05,-0.46
-3406.0,-83968.0,133265.0,272.0,0.0,0.0,0.0,-11.592,1012.727,-81.6,0.985,-0.41
-3406.0,-83967.0,133268.0,272.0,0.0,0.0,0.0,-12.051,1015.305,-84.28,0.973,-0.46
-3406.0,-83966.0,133270.0,272.0,0.0,0.0,0.0,-12.299,1015.113,-84.17,1.02,-0.39
-3406.0,-83966.0,133272.0,270.0,0.0,0.0,0.0,-12.078,1014.656,-83.64,0.873,-0.38
-3406.0,-83966.0,133274.0,270.0,0.0,0.0,0.0,-12.042,1017.198,-83.91,0.906,-0.42
-3406.0,-83966.0,133276.0,270.0,0.0,0.0,0.0,-11.997,1017.075,-83.83,0.848,-0.42
-3406.0,-83966.0,133279.0,270.0,0.0,0.0,0.0,-9.635,1016.474,-83.82,0.927,-0.41
-3405.0,-83965.0,133280.0,270.0,0.0,0.0,0.0,-7.321,1016.609,-83.75,1.079,-0.27
-3405.0,-83964.0,133282.0,270.0,0.0,0.0,0.0,-10.321,1016.507,-83.81,0.992,-0.32
-3405.0,-83963.0,133283.0,270.0,0.0,0.0,0.0,-13.001,1016.536,-83.87,1.058,-0.25
-3405.0,-83963.0,133285.0,270.0,0.0,0.0,0.0,-12.308,1016.507,-83.85,0.982,-0.34
-3406.0,-83963.0,133287.0,269.0,0.0,0.0,0.0,-12.116,1016.568,-83.85,0.827,-0.34
-3406.0,-83963.0,133289.0,269.0,0.0,0.0,0.0,-12.334,1016.64,-83.85,0.926,-0.3
-3406.0,-83963.0,133290.0,269.0,0.0,0.0,0.0,-12.261,1016.597,-86.24,0.711,-0.31
-3406.0,-83962.0,133291.0,269.0,0.0,0.0,0.0,-12.181,1016.529,-88.57,0.829,-0.18
-3406.0,-83961.0,133293.0,269.0,0.0,0.0,0.0,-12.163,1016.517,-87.98,0.923,-0.22
-3406.0,-83961.0,133294.0,269.0,0.0,0.0,0.0,-12.162,1016.46,-87.68,0.909,-0.17
-3406.0,-83959.0,133295.0,269.0,0.0,0.0,0.0,-12.131,1016.382,-87.85,0.985,-0.24
-3406.0,-83959.0,133297.0,269.0,0.0,0.0,0.0,-12.206,1016.426,-85.41,0.875,-0.38
-3406.0,-83960.0,133299.0,270.0,0.0,0.0,0.0,-12.291,1016.512,-83.09,0.719,-0.3
-3406.0,-83960.0,133301.0,270.0,0.0,0.0,0.0,-12.263,1016.528,-83.66,0.826,-0.37
-3407.0,-83960.0,133302.0,270.0,0.0,0.0,0.0,-14.595,1016.585,-84.02,0.897,-0.29
-3407.0,-83960.0,133304.0,270.0,0.0,0.0,0.0,-14.574,1016.708,-81.46,0.922,-0.28
-3407.0,-83960.0,133306.0,270.0,0.0,0.0,0.0,-11.686,1016.776,-79.11,0.998,-0.33
-3407.0,-83961.0,133308.0,270.0,0.0,0.0,0.0,-11.823,1016.681,-82.09,0.862,-0.32
-3407.0,-83961.0,133309.0,270.0,0.0,0.0,0.0,-12.187,1016.612,-84.76,0.864,-0.17
-3407.0,-83960.0,133310.0,270.0,0.0,0.0,0.0,-12.017,1014.323,-83.93,0.922,-0.23
-3407.0,-83959.0,133311.0,270.0,0.0,0.0,0.0,-12.119,1012.068,-83.63,1.053,-0.16
-3407.0,-83958.0,133312.0,270.0,0.0,0.0,0.0,-12.12,1015.0,-83.85,0.999,-0.24
-3406.0,-83958.0,133314.0,270.0,0.0,0.0,0.0,-12.218,1015.256,-83.83,1.067,-0.39
-3406.0,-83957.0,133316.0,270.0,0.0,0.0,0.0,-12.282,1012.231,-83.76,0.971,-0.3
-3407.0,-83956.0,133318.0,270.0,0.0,0.0,0.0,-12.314,1012.573,-83.75,0.97,-0.36
-3406.0,-83956.0,133320.0,270.0,0.0,0.0,0.0,-12.296,1015.396,-83.83,1.019,-0.29
-3406.0,-83956.0,133321.0,270.0,0.0,0.0,0.0,-12.23,1017.503,-83.86,0.864,-0.14
-3406.0,-83956.0,133322.0,270.0,0.0,0.0,0.0,-12.248,1017.036,-81.46,0.904,-0.24
-3405.0,-83956.0,133323.0,271.0,0.0,0.0,0.0,-12.197,1016.672,-81.51,0.845,-0.17
-3405.0,-83957.0,133325.0,271.0,0.0,0.0,0.0,-12.149,1019.143,-82.09,0.776,-0.24
-3405.0,-83957.0,133327.0,271.0,0.0,0.0,0.0,-12.244,1021.395,-79.52,0.98,-0.39
-3405.0,-83958.0,133329.0,271.0,0.0,0.0,0.0,-12.284,1020.748,-79.62,0.83,-0.3
-3405.0,-83959.0,133331.0,271.0,0.0,0.0,0.0,-12.302,1020.357,-80.14,0.977,-0.36
-3404.0,-83958.0,133332.0,271.0,0.0,0.0,0.0,-12.314,1020.513,-79.92,1.053,-0.3
-3404.0,-83959.0,133334.0,271.0,0.0,0.0,0.0,-12.288,1020.48,-79.99,0.951,-0.28
-3403.0,-83959.0,133336.0,271.0,0.0,0.0,0.0,-12.236,1022.889,-79.99,0.924,-0.33
-3402.0,-83960.0,133338.0,271.0,0.0,0.0,0.0,-12.185,1025.25,-80.07,0.893,-0.32
-3402.0,-83961.0,133340.0,271.0,0.0,0.0,0.0,-12.259,1022.512,-77.61,0.803,-0.31
-3402.0,-83962.0,133342.0,271.0,0.0,0.0,0.0,-12.267,1019.972,-77.61,0.942,-0.32
-3402.0,-83961.0,133343.0,271.0,0.0,0.0,0.0,-12.094,1020.534,-82.95,1.081,-0.31
-3402.0,-83961.0,133345.0,271.0,0.0,0.0,0.0,-12.121,1020.783,-82.61,0.976,-0.31
-3402.0,-83960.0,133347.0,271.0,0.0,0.0,0.0,-12.177,1020.627,-81.6,1.058,-0.32
-3402.0,-83960.0,133349.0,271.0,0.0,0.0,0.0,-12.106,1020.53,-84.43,0.974,-0.32
-3402.0,-83959.0,133350.0,271.0,0.0,0.0,0.0,-12.144,1018.199,-84.22,0.963,-0.31
-3402.0,-83959.0,133352.0,270.0,0.0,0.0,0.0,-12.187,1015.957,-83.68,1.019,-0.32
-3402.0,-83958.0,133353.0,270.0,0.0,0.0,0.0,-9.81,1016.505,-83.84,1.008,-0.17
-3401.0,-83957.0,133354.0,270.0,0.0,0.0,0.0,-7.479,1019.144,-83.79,0.992,-0.22
-3400.0,-83957.0,133355.0,270.0,0.0,0.0,0.0,-8.057,1021.273,-83.89,1.002,-0.16
-3400.0,-83956.0,133357.0,270.0,0.0,0.0,0.0,-8.386,1020.725,-83.84,0.995,-0.24
-3399.0,-83956.0,133359.0,270.0,0.0,0.0,0.0,-8.249,1020.397,-83.85,0.996,-0.39
-3399.0,-83956.0,133361.0,270.0,0.0,0.0,0.0,-8.321,1020.563,-83.86,0.857,-0.3
-3398.0,-83956.0,133363.0,270.0,0.0,0.0,0.0,-8.414,1018.227,-81.41,0.903,-0.37
-3398.0,-83957.0,133364.0,270.0,0.0,0.0,0.0,-10.858,1018.376,-79.13,0.837,-0.29
-3398.0,-83957.0,133366.0,270.0,0.0,0.0,0.0,-13.088,1018.854,-79.77,0.922,-0.28
-3399.0,-83957.0,133368.0,270.0,0.0,0.0,0.0,-12.524,1016.324,-77.62,1.073,-0.33
-3399.0,-83958.0,133370.0,270.0,0.0,0.0,0.0,-12.251,1016.485,-75.12,0.981,-0.32
-3399.0,-83959.0,133371.0,270.0,0.0,0.0,0.0,-12.361,1016.961,-75.76,0.905,-0.31
-3399.0,-83961.0,133373.0,270.0,0.0,0.0,0.0,-12.291,1019.105,-76.1,0.735,-0.32
-3399.0,-83964.0,133375.0,270.0,0.0,0.0,0.0,-12.305,1021.521,-76.0,0.71,-0.31
-3399.0,-83966.0,133377.0,270.0,0.0,0.0,0.0,-12.313,1020.936,-76.01,0.633,-0.31
-3399.0,-83967.0,133379.0,270.0,0.0,0.0,0.0,-12.36,1020.665,-76.0,0.911,-0.32
-3398.0,-83969.0,133382.0,270.0,0.0,0.0,0.0,-7.633,1020.523,-78.31,0.958,-0.31
-3398.0,-83968.0,133384.0,270.0,0.0,0.0,0.0,-8.081,1020.334,-83.05,1.099,-0.32
-3397.0,-83968.0,133386.0,270.0,0.0,0.0,0.0,-8.348,1017.923,-84.76,0.923,-0.32
-3397.0,-83967.0,133388.0,270.0,0.0,0.0,0.0,-8.222,1015.753,-83.81,1.035,-0.32
-3396.0,-83966.0,133389.0,270.0,0.0,0.0,0.0,-8.262,1016.452,-83.68,1.0,-0.32
-3395.0,-83966.0,133391.0,270.0,0.0,0.0,0.0,-10.613,1016.885,-83.86,0.965,-0.32
-3395.0,-83965.0,133393.0,270.0,0.0,0.0,0.0,-12.945,1016.838,-83.87,1.009,-0.32
-3395.0,-83964.0,133395.0,270.0,0.0,0.0,0.0,-12.339,1016.919,-83.85,1.003,-0.32
-3395.0,-83964.0,133396.0,270.0,0.0,0.0,0.0,-11.953,1016.817,-86.23,0.839,-0.32
-3395.0,-83963.0,133398.0,270.0,0.0,0.0,0.0,-12.045,1016.707,-88.58,0.904,-0.32
-3395.0,-83963.0,133400.0,270.0,0.0,0.0,0.0,-12.017,1016.639,-87.98,0.836,-0.32
-3395.0,-83962.0,133402.0,270.0,0.0,0.0,0.0,-12.04,1016.556,-87.67,0.915,-0.32
-3395.0,-83960.0,133403.0,270.0,0.0,0.0,0.0,-12.098,1016.537,-85.46,1.073,-0.32
-3395.0,-83960.0,133405.0,270.0,0.0,0.0,0.0,-12.193,1016.532,-83.08,0.978,-0.32
-3395.0,-83959.0,133407.0,271.0,0.0,0.0,0.0,-12.093,1016.381,-86.07,1.045,-0.32
-3394.0,-83958.0,133409.0,271.0,0.0,0.0,0.0,-9.629,1016.275,-88.65,0.828,-0.32
-3394.0,-83958.0,133410.0,271.0,0.0,0.0,0.0,-9.712,1016.359,-87.9,0.866,-0.18
-3394.0,-83957.0,133411.0,271.0,0.0,0.0,0.0,-12.707,1016.555,-85.3,0.851,-0.22
-3394.0,-83958.0,133412.0,271.0,0.0,0.0,0.0,-12.494,1019.027,-83.16,0.783,-0.16
-3394.0,-83958.0,133413.0,271.0,0.0,0.0,0.0,-12.012,1021.306,-83.77,0.969,-0.24
-3394.0,-83958.0,133415.0,271.0,0.0,0.0,0.0,-12.253,1020.694,-84.06,0.82,-0.39
-3394.0,-83957.0,133417.0,271.0,0.0,0.0,0.0,-12.242,1020.359,-83.87,0.967,-0.3
-3395.0,-83957.0,133419.0,273.0,0.0,0.0,0.0,-12.28,1020.487,-83.93,1.045,-0.37
-3395.0,-83957.0,133421.0,273.0,0.0,0.0,0.0,-12.305,1020.519,-81.53,0.947,-0.29
-3395.0,-83957.0,133422.0,273.0,0.0,0.0,0.0,-12.358,1018.287,-79.16,0.916,-0.28
-3395.0,-83958.0,133424.0,273.0,0.0,0.0,0.0,-12.274,1018.35,-79.74,0.884,-0.33
-3395.0,-83959.0,133426.0,273.0,0.0,0.0,0.0,-12.198,1018.934,-80.06,0.796,-0.32
-3395.0,-83959.0,133427.0,273.0,0.0,0.0,0.0,-12.192,1016.407,-79.84,0.935,-0.17
-3395.0,-83959.0,133428.0,273.0,0.0,0.0,0.0,-12.183,1016.518,-79.89,1.074,-0.09
-3395.0,-83959.0,133428.0,273.0,0.0,0.0,0.0,-12.203,1017.008,-79.89,0.969,-0.07
-3395.0,-83959.0,133429.0,272.0,0.0,0.0,0.0,-12.262,1016.758,-79.9,1.05,-0.09
-3395.0,-83958.0,133431.0,272.0,0.0,0.0,0.0,-12.273,1016.732,-82.28,0.966,-0.32
-3395.0,-83958.0,133433.0,272.0,0.0,0.0,0.0,-12.297,1016.62,-84.61,0.955,-0.37
-3395.0,-83957.0,133435.0,272.0,0.0,0.0,0.0,-12.39,1016.702,-84.03,1.012,-0.35
-3395.0,-83956.0,133437.0,272.0,0.0,0.0,0.0,-12.407,1016.723,-83.72,1.001,-0.35
-3396.0,-83956.0,133438.0,272.0,0.0,0.0,0.0,-12.332,1016.72,-83.89,0.984,-0.26
-3396.0,-83955.0,133440.0,272.0,0.0,0.0,0.0,-12.214,1016.726,-83.85,0.994,-0.3
-3396.0,-83955.0,133442.0,272.0,0.0,0.0,0.0,-12.088,1016.707,-83.86,0.987,-0.34
-3395.0,-83955.0,133443.0,273.0,0.0,0.0,0.0,-12.073,1016.776,-81.45,0.843,-0.32
-3395.0,-83956.0,133445.0,273.0,0.0,0.0,0.0,-12.102,1016.838,-79.13,0.9,-0.31
-3395.0,-83958.0,133447.0,273.0,0.0,0.0,0.0,-12.159,1016.873,-77.32,0.686,-0.31
-3394.0,-83960.0,133449.0,273.0,0.0,0.0,0.0,-12.256,1016.904,-75.29,0.818,-0.31
-3394.0,-83961.0,133451.0,273.0,0.0,0.0,0.0,-12.28,1019.177,-75.76,0.762,-0.32
-3394.0,-83963.0,133453.0,273.0,0.0,0.0,0.0,-12.329,1019.044,-76.11,0.802,-0.32
-3394.0,-83964.0,133455.0,273.0,0.0,0.0,0.0,-12.407,1016.12,-75.87,0.959,-0.31
-3394.0,-83966.0,133456.0,273.0,0.0,0.0,0.0,-12.367,1016.273,-78.33,0.731,-0.31
-3395.0,-83965.0,133458.0,274.0,0.0,0.0,0.0,-12.314,1016.665,-80.65,0.989,-0.32
-3393.0,-83967.0,133462.0,274.0,0.0,0.0,0.0,-10.03,1016.647,-79.72,0.797,-0.32
-3393.0,-83968.0,133464.0,274.0,0.0,0.0,0.0,-12.92,1016.729,-79.94,0.958,-0.32
-3393.0,-83969.0,133465.0,274.0,0.0,0.0,0.0,-12.624,1016.834,-79.9,0.792,-0.32
-3394.0,-83969.0,133467.0,274.0,0.0,0.0,0.0,-12.136,1016.864,-79.9,0.973,-0.32
-3394.0,-83970.0,133470.0,274.0,0.0,0.0,0.0,-12.276,1016.903,-79.9,0.839,-0.22
-3394.0,-83970.0,133471.0,280.0,0.0,0.0,0.0,-12.31,1016.893,-79.89,0.898,-0.16
-3394.0,-83971.0,133471.0,280.0,0.0,0.0,0.0,-12.302,1016.881,-79.89,0.899,-0.1
-3394.0,-83970.0,133473.0,280.0,0.0,0.0,0.0,-12.374,1014.513,-79.85,1.023,-0.3
-3394.0,-83970.0,133474.0,280.0,0.0,0.0,0.0,-12.424,1014.54,-79.85,0.991,-0.15
-3394.0,-83971.0,133476.0,280.0,0.0,0.0,0.0,-12.455,1015.05,-79.86,0.901,-0.29
-3394.0,-83972.0,133478.0,280.0,0.0,0.0,0.0,-12.492,1012.482,-79.81,0.717,-0.37
-3394.0,-83974.0,133479.0,280.0,0.0,0.0,0.0,-10.1,1012.583,-79.76,0.706,-0.27
-3394.0,-83975.0,133481.0,280.0,0.0,0.0,0.0,-10.086,1015.436,-79.82,0.765,-0.38
-3393.0,-83975.0,133483.0,279.0,0.0,0.0,0.0,-10.449,1017.387,-82.26,0.847,-0.3
-3392.0,-83975.0,133485.0,279.0,0.0,0.0,0.0,-7.766,1016.784,-82.15,0.95,-0.28
-3391.0,-83975.0,133487.0,279.0,0.0,0.0,0.0,-7.824,1016.389,-81.61,0.866,-0.33
-3390.0,-83975.0,133488.0,279.0,0.0,0.0,0.0,-8.287,1016.548,-81.85,0.936,-0.32
-3389.0,-83975.0,133490.0,279.0,0.0,0.0,0.0,-8.058,1016.505,-81.79,1.006,-0.31
-3388.0,-83975.0,133492.0,279.0,0.0,0.0,0.0,-8.151,1016.569,-81.8,0.956,-0.32
-3388.0,-83975.0,133494.0,279.0,0.0,0.0,0.0,-8.215,1019.079,-79.45,0.919,-0.31
-3387.0,-83976.0,133496.0,279.0,0.0,0.0,0.0,-8.298,1019.129,-79.49,0.872,-0.31
-3386.0,-83978.0,133497.0,276.0,0.0,0.0,0.0,-8.329,1016.312,-80.0,0.646,-0.32
-3385.0,-83978.0,133499.0,276.0,0.0,0.0,0.0,-8.29,1016.545,-82.14,0.829,-0.32
-3385.0,-83978.0,133500.0,276.0,0.0,0.0,0.0,-8.32,1016.991,-82.18,0.907,-0.17
-3384.0,-83979.0,133502.0,276.0,0.0,0.0,0.0,-8.349,1016.723,-81.6,0.745,-0.22
-3384.0,-83978.0,133503.0,276.0,0.0,0.0,0.0,-8.351,1016.666,-81.86,1.023,-0.16
-3383.0,-83980.0,133504.0,276.0,0.0,0.0,0.0,-8.449,1016.644,-79.4,0.638,-0.24
-3383.0,-83981.0,133506.0,276.0,0.0,0.0,0.0,-10.859,1014.303,-79.46,0.83,-0.39
-3383.0,-83982.0,133507.0,276.0,0.0,0.0,0.0,-10.823,1011.964,-79.95,0.755,-0.16
-3383.0,-83984.0,133509.0,272.0,0.0,0.0,0.0,-10.366,1014.99,-77.36,0.628,-0.27
-3383.0,-83985.0,133510.0,272.0,0.0,0.0,0.0,-13.007,1017.713,-75.22,0.868,-0.14
-3383.0,-83987.0,133511.0,272.0,0.0,0.0,0.0,-12.847,1016.954,-75.74,0.724,-0.21
-3384.0,-83988.0,133513.0,272.0,0.0,0.0,0.0,-12.29,1016.688,-76.07,0.993,-0.4
-3384.0,-83988.0,133515.0,272.0,0.0,0.0,0.0,-12.5,1016.867,-75.9,1.037,-0.31
-3384.0,-83989.0,133517.0,272.0,0.0,0.0,0.0,-12.411,1016.874,-75.93,0.997,-0.36
-3384.0,-83989.0,133519.0,272.0,0.0,0.0,0.0,-12.348,1016.853,-78.32,1.022,-0.3
-3384.0,-83989.0,133522.0,270.0,0.0,0.0,0.0,-12.163,1021.633,-80.16,0.958,-0.33
-3384.0,-83990.0,133524.0,270.0,0.0,0.0,0.0,-12.157,1021.135,-79.84,0.862,-0.33
-3384.0,-83990.0,133526.0,270.0,0.0,0.0,0.0,-12.063,1020.765,-82.4,0.893,-0.31
-3384.0,-83990.0,133528.0,270.0,0.0,0.0,0.0,-12.008,1020.821,-84.69,0.819,-0.32
-3385.0,-83991.0,133529.0,270.0,0.0,0.0,0.0,-12.146,1018.456,-81.68,0.762,-0.31
-3385.0,-83991.0,133531.0,270.0,0.0,0.0,0.0,-12.263,1018.502,-79.02,0.958,-0.31
-3385.0,-83992.0,133533.0,270.0,0.0,0.0,0.0,-12.251,1021.204,-79.85,0.807,-0.32
-3385.0,-83992.0,133535.0,270.0,0.0,0.0,0.0,-12.268,1020.825,-80.1,0.962,-0.32
-3385.0,-83992.0,133537.0,269.0,0.0,0.0,0.0,-12.214,1020.209,-82.32,0.889,-0.31
-3385.0,-83993.0,133538.0,269.0,0.0,0.0,0.0,-12.142,1020.318,-84.69,0.691,-0.32
-3385.0,-83994.0,133540.0,269.0,0.0,0.0,0.0,-12.163,1020.323,-84.1,0.652,-0.32
-3386.0,-83996.0,133542.0,269.0,0.0,0.0,0.0,-14.621,1020.519,-81.46,0.639,-0.32
-3387.0,-83996.0,133544.0,269.0,0.0,0.0,0.0,-16.928,1020.533,-81.71,0.784,-0.32
-3387.0,-83996.0,133545.0,269.0,0.0,0.0,0.0,-13.865,1020.414,-84.54,0.838,-0.32
-3387.0,-83996.0,133547.0,269.0,0.0,0.0,0.0,-11.321,1020.461,-81.84,1.003,-0.32
-3387.0,-83997.0,133549.0,269.0,0.0,0.0,0.0,-12.164,1020.549,-79.02,0.829,-0.32
-3387.0,-83997.0,133551.0,269.0,0.0,0.0,0.0,-12.316,1020.466,-82.23,0.908,-0.46
-3387.0,-83997.0,133554.0,269.0,0.0,0.0,0.0,-12.149,1020.526,-82.42,1.014,-0.41
-3387.0,-83997.0,133556.0,269.0,0.0,0.0,0.0,-12.189,1020.643,-81.74,0.953,-0.47
-3387.0,-83996.0,133558.0,269.0,0.0,0.0,0.0,-12.098,1018.294,-84.33,1.057,-0.39
-3388.0,-83995.0,133560.0,269.0,0.0,0.0,0.0,-12.095,1016.083,-84.18,0.964,-0.24
-3388.0,-83994.0,133561.0,269.0,0.0,0.0,0.0,-12.057,1016.734,-83.69,0.939,-0.33
-3388.0,-83994.0,133563.0,269.0,0.0,0.0,0.0,-12.044,1017.051,-83.89,0.993,-0.27
-3388.0,-83994.0,133565.0,269.0,0.0,0.0,0.0,-12.073,1016.874,-83.83,0.842,-0.34
-3388.0,-83994.0,133567.0,271.0,0.0,0.0,0.0,-12.121,1016.867,-83.87,0.88,-0.35
-3388.0,-83994.0,133568.0,271.0,0.0,0.0,0.0,-12.203,1014.436,-83.79,0.825,-0.3
-3388.0,-83993.0,133570.0,271.0,0.0,0.0,0.0,-12.257,1014.41,-83.8,0.898,-0.31
-3388.0,-83993.0,133572.0,271.0,0.0,0.0,0.0,-12.35,1017.255,-81.47,1.051,-0.32
-3388.0,-83993.0,133574.0,271.0,0.0,0.0,0.0,-12.436,1016.982,-79.12,0.966,-0.31
-3389.0,-83993.0,133575.0,271.0,0.0,0.0,0.0,-12.487,1016.541,-77.32,1.031,-0.32
-3389.0,-83994.0,133578.0,271.0,0.0,0.0,0.0,-12.528,1016.832,-75.3,0.955,-0.46
-3389.0,-83996.0,133580.0,271.0,0.0,0.0,0.0,-12.483,1016.823,-75.71,0.8,-0.4
-3389.0,-83998.0,133583.0,271.0,0.0,0.0,0.0,-12.432,1016.917,-76.07,0.754,-0.47
-3389.0,-83999.0,133585.0,271.0,0.0,0.0,0.0,-12.389,1016.953,-75.89,0.734,-0.39
-3390.0,-84001.0,133586.0,271.0,0.0,0.0,0.0,-12.335,1016.982,-75.95,0.738,-0.24
-3390.0,-84002.0,133588.0,271.0,0.0,0.0,0.0,-12.293,1016.942,-75.92,0.979,-0.33
-3390.0,-84002.0,133590.0,271.0,0.0,0.0,0.0,-12.279,1016.856,-75.94,1.033,-0.27
-3390.0,-84002.0,133592.0,271.0,0.0,0.0,0.0,-12.228,1016.703,-78.32,1.011,-0.48
-3390.0,-84002.0,133595.0,271.0,0.0,0.0,0.0,-9.836,1016.573,-80.61,1.011,-0.44
-3389.0,-84002.0,133597.0,271.0,0.0,0.0,0.0,-7.52,1016.531,-82.37,0.922,-0.45
-3389.0,-84001.0,133599.0,271.0,0.0,0.0,0.0,-8.077,1016.556,-84.41,0.958,-0.38
-3388.0,-84000.0,133601.0,271.0,0.0,0.0,0.0,-8.317,1016.591,-86.39,1.003,-0.25
-3388.0,-83999.0,133603.0,271.0,0.0,0.0,0.0,-8.058,1016.596,-88.37,0.98,-0.33
-3387.0,-83998.0,133604.0,271.0,0.0,0.0,0.0,-8.17,1016.736,-85.57,0.973,-0.27
-3386.0,-83997.0,133606.0,271.0,0.0,0.0,0.0,-8.247,1016.834,-82.86,0.975,-0.34
-3386.0,-83997.0,133608.0,271.0,0.0,0.0,0.0,-8.26,1016.778,-83.65,0.97,-0.34
-3386.0,-83996.0,133609.0,271.0,0.0,0.0,0.0,-10.646,1016.744,-83.93,0.977,-0.3
-3386.0,-83995.0,133611.0,271.0,0.0,0.0,0.0,-12.989,1019.064,-83.88,0.979,-0.31
-3386.0,-83995.0,133613.0,272.0,0.0,0.0,0.0,-12.421,1018.954,-83.89,0.974,-0.32
-3386.0,-83995.0,133615.0,272.0,0.0,0.0,0.0,-12.194,1018.474,-81.48,0.829,-0.31
-3386.0,-83997.0,133616.0,272.0,0.0,0.0,0.0,-12.414,1021.104,-79.22,0.735,-0.32
-3386.0,-83998.0,133618.0,272.0,0.0,0.0,0.0,-12.333,1020.952,-79.79,0.721,-0.32
-3386.0,-83999.0,133620.0,272.0,0.0,0.0,0.0,-12.313,1020.397,-80.09,0.741,-0.31
-3386.0,-83999.0,133622.0,272.0,0.0,0.0,0.0,-12.278,1020.57,-79.93,0.974,-0.32
-3386.0,-83999.0,133624.0,272.0,0.0,0.0,0.0,-12.196,1020.351,-82.36,1.033,-0.32
-3385.0,-83998.0,133626.0,272.0,0.0,0.0,0.0,-12.104,1020.271,-84.69,1.01,-0.32
-3385.0,-83998.0,133627.0,271.0,0.0,0.0,0.0,-12.194,1020.365,-81.72,1.005,-0.32
-3385.0,-83998.0,133629.0,271.0,0.0,0.0,0.0,-12.299,1018.215,-79.02,0.919,-0.32
-3385.0,-83998.0,133631.0,271.0,0.0,0.0,0.0,-12.29,1016.026,-79.74,0.957,-0.32
-3385.0,-83998.0,133633.0,271.0,0.0,0.0,0.0,-12.203,1016.624,-82.41,0.999,-0.32
-3385.0,-83997.0,133634.0,271.0,0.0,0.0,0.0,-12.136,1016.939,-84.58,0.978,-0.32
-3385.0,-83997.0,133636.0,271.0,0.0,0.0,0.0,-9.865,1016.893,-81.58,0.97,-0.32
-3385.0,-83996.0,133638.0,271.0,0.0,0.0,0.0,-9.93,1016.938,-81.34,0.972,-0.32
-3385.0,-83996.0,133640.0,271.0,0.0,0.0,0.0,-12.735,1016.803,-84.5,0.968,-0.32
-3385.0,-83995.0,133641.0,272.0,0.0,0.0,0.0,-12.465,1016.773,-84.15,0.975,-0.32
-3385.0,-83995.0,133643.0,272.0,0.0,0.0,0.0,-12.006,1016.708,-83.68,0.831,-0.32
-3384.0,-83996.0,133645.0,272.0,0.0,0.0,0.0,-12.211,1016.647,-83.88,0.731,-0.32
-3384.0,-83996.0,133647.0,272.0,0.0,0.0,0.0,-12.157,1016.599,-83.84,0.718,-0.32
-3383.0,-83997.0,133649.0,272.0,0.0,0.0,0.0,-12.182,1016.536,-83.87,0.738,-0.32
-3383.0,-83997.0,133650.0,272.0,0.0,0.0,0.0,-12.15,1016.469,-83.83,0.827,-0.32
-3383.0,-83997.0,133652.0,272.0,0.0,0.0,0.0,-12.166,1016.399,-83.85,0.937,-0.32
-3383.0,-83997.0,133654.0,272.0,0.0,0.0,0.0,-9.793,1016.33,-83.81,0.705,-0.32
-3383.0,-83998.0,133656.0,271.0,0.0,0.0,0.0,-7.544,1016.395,-81.37,0.831,-0.32
-3382.0,-83999.0,133657.0,271.0,0.0,0.0,0.0,-8.213,1016.533,-79.05,0.834,-0.32
-3381.0,-84000.0,133659.0,271.0,0.0,0.0,0.0,-8.498,1016.588,-79.64,0.717,-0.32
-3381.0,-84000.0,133661.0,271.0,0.0,0.0,0.0,-10.693,1016.676,-79.99,0.885,-0.32
-3382.0,-84003.0,133663.0,271.0,0.0,0.0,0.0,-13.064,1016.772,-79.86,0.539,-0.32
-3381.0,-84004.0,133665.0,271.0,0.0,0.0,0.0,-12.388,1016.723,-82.29,0.658,-0.32
-3381.0,-84004.0,133666.0,271.0,0.0,0.0,0.0,-12.024,1016.648,-84.61,0.805,-0.32
-3381.0,-84004.0,133669.0,271.0,0.0,0.0,0.0,-12.276,1016.729,-81.65,0.925,-0.46
-3381.0,-84004.0,133671.0,270.0,0.0,0.0,0.0,-12.321,1016.778,-78.99,1.095,-0.41
-3381.0,-84003.0,133674.0,270.0,0.0,0.0,0.0,-12.3,1016.723,-79.75,1.0,-0.47
-3382.0,-84004.0,133676.0,270.0,0.0,0.0,0.0,-12.245,1016.742,-80.02,0.958,-0.39
-3382.0,-84004.0,133677.0,270.0,0.0,0.0,0.0,-12.23,1016.834,-79.86,0.931,-0.24
-3382.0,-84004.0,133679.0,270.0,0.0,0.0,0.0,-12.191,1016.947,-79.88,0.963,-0.33
-3382.0,-84004.0,133681.0,270.0,0.0,0.0,0.0,-12.173,1017.042,-79.89,0.843,-0.27
-3382.0,-84005.0,133683.0,270.0,0.0,0.0,0.0,-12.199,1017.087,-79.9,0.884,-0.34
-3382.0,-84006.0,133684.0,270.0,0.0,0.0,0.0,-12.252,1017.074,-79.88,0.805,-0.35
-3382.0,-84006.0,133686.0,270.0,0.0,0.0,0.0,-12.317,1017.004,-79.89,0.889,-0.3
-3382.0,-84006.0,133688.0,270.0,0.0,0.0,0.0,-12.373,1016.898,-79.89,1.044,-0.31
-3382.0,-84006.0,133690.0,270.0,0.0,0.0,0.0,-12.405,1016.785,-79.89,0.955,-0.32
-3381.0,-84006.0,133692.0,270.0,0.0,0.0,0.0,-12.412,1016.698,-79.89,1.023,-0.31
-3382.0,-84006.0,133693.0,270.0,0.0,0.0,0.0,-12.401,1016.665,-79.89,0.946,-0.32
-3382.0,-84006.0,133695.0,270.0,0.0,0.0,0.0,-12.377,1016.684,-79.89,0.934,-0.32
-3382.0,-84006.0,133697.0,270.0,0.0,0.0,0.0,-12.347,1016.737,-79.89,0.985,-0.31
-3382.0,-84006.0,133699.0,270.0,0.0,0.0,0.0,-12.317,1016.795,-79.89,0.978,-0.32
-3383.0,-84007.0,133701.0,271.0,0.0,0.0,0.0,-14.667,1016.864,-79.94,0.818,-0.32
-3384.0,-84007.0,133702.0,271.0,0.0,0.0,0.0,-16.971,1016.911,-79.98,0.875,-0.32
-3384.0,-84008.0,133704.0,271.0,0.0,0.0,0.0,-14.004,1016.88,-79.92,0.806,-0.32
-3384.0,-84008.0,133706.0,271.0,0.0,0.0,0.0,-13.752,1016.844,-79.92,0.89,-0.32
-3385.0,-84008.0,133708.0,271.0,0.0,0.0,0.0,-16.832,1016.815,-79.98,1.047,-0.32
-3386.0,-84008.0,133709.0,271.0,0.0,0.0,0.0,-16.501,1019.095,-80.02,0.951,-0.32
-3386.0,-84008.0,133711.0,271.0,0.0,0.0,0.0,-13.672,1018.977,-79.96,1.018,-0.32
-3386.0,-84008.0,133713.0,271.0,0.0,0.0,0.0,-11.569,1016.089,-79.87,0.946,-0.32
-3387.0,-84008.0,133715.0,272.0,0.0,0.0,0.0,-12.119,1016.414,-79.88,0.933,-0.32
-3387.0,-84008.0,133717.0,272.0,0.0,0.0,0.0,-12.356,1019.205,-82.33,0.983,-0.32
-3387.0,-84007.0,133718.0,272.0,0.0,0.0,0.0,-12.076,1018.913,-84.66,0.977,-0.32
-3387.0,-84007.0,133720.0,272.0,0.0,0.0,0.0,-12.175,1016.155,-84.02,0.816,-0.32
-3387.0,-84007.0,133723.0,272.0,0.0,0.0,0.0,-12.171,1016.428,-83.71,0.873,-0.46
-3387.0,-84007.0,133725.0,272.0,0.0,0.0,0.0,-12.169,1016.908,-83.89,0.804,-0.41
-3387.0,-84007.0,133727.0,272.0,0.0,0.0,0.0,-12.151,1016.639,-83.84,0.888,-0.47
-3387.0,-84007.0,133729.0,272.0,0.0,0.0,0.0,-12.127,1016.626,-83.86,0.9,-0.39
-3387.0,-84007.0,133731.0,272.0,0.0,0.0,0.0,-12.094,1016.539,-83.84,0.854,-0.24
-3388.0,-84007.0,133733.0,272.0,0.0,0.0,0.0,-12.134,1016.603,-81.46,0.858,-0.33
-3388.0,-84008.0,133734.0,272.0,0.0,0.0,0.0,-12.199,1016.654,-79.12,0.868,-0.27
-3388.0,-84007.0,133736.0,272.0,0.0,0.0,0.0,-12.203,1016.64,-79.71,1.007,-0.34
-3388.0,-84007.0,133738.0,272.0,0.0,0.0,0.0,-12.247,1016.664,-80.02,0.965,-0.35
-3388.0,-84007.0,133740.0,272.0,0.0,0.0,0.0,-12.319,1016.713,-79.85,1.027,-0.3
-3388.0,-84008.0,133741.0,272.0,0.0,0.0,0.0,-12.373,1016.775,-79.89,0.793,-0.31
-3388.0,-84009.0,133743.0,272.0,0.0,0.0,0.0,-12.406,1016.845,-79.88,0.838,-0.32
-3388.0,-84010.0,133745.0,277.0,0.0,0.0,0.0,-12.399,1019.243,-79.95,0.819,-0.31
-3388.0,-84011.0,133747.0,277.0,0.0,0.0,0.0,-12.375,1021.549,-79.98,0.751,-0.32
-3389.0,-84012.0,133750.0,277.0,0.0,0.0,0.0,-12.325,1020.566,-79.97,0.791,-0.31
-3389.0,-84012.0,133751.0,277.0,0.0,0.0,0.0,-12.295,1020.656,-79.97,0.936,-0.18
-3389.0,-84012.0,133753.0,277.0,0.0,0.0,0.0,-12.285,1018.209,-79.92,1.016,-0.23
-3389.0,-84012.0,133754.0,277.0,0.0,0.0,0.0,-14.666,1015.927,-79.92,0.918,-0.16
-3390.0,-84012.0,133755.0,277.0,0.0,0.0,0.0,-14.626,1016.508,-79.93,0.887,-0.24
-3390.0,-84013.0,133757.0,273.0,0.0,0.0,0.0,-11.754,1016.853,-79.88,0.855,-0.39
-3390.0,-84014.0,133759.0,273.0,0.0,0.0,0.0,-12.076,1016.756,-79.89,0.766,-0.3
-3390.0,-84014.0,133761.0,273.0,0.0,0.0,0.0,-12.57,1016.851,-79.89,0.905,-0.37
-3390.0,-84013.0,133762.0,273.0,0.0,0.0,0.0,-12.264,1016.771,-82.28,1.045,-0.16
-3390.0,-84013.0,133763.0,273.0,0.0,0.0,0.0,-12.274,1016.772,-82.23,0.939,-0.19
-3390.0,-84013.0,133764.0,273.0,0.0,0.0,0.0,-9.839,1016.729,-81.65,1.021,-0.18
-3388.0,-84013.0,133766.0,273.0,0.0,0.0,0.0,-7.435,1016.606,-84.22,0.792,-0.25
-3388.0,-84013.0,133768.0,273.0,0.0,0.0,0.0,-10.386,1016.651,-84.16,0.831,-0.38
-3387.0,-84012.0,133770.0,272.0,0.0,0.0,0.0,-10.601,1016.595,-86.04,0.824,-0.3
-3387.0,-84012.0,133772.0,272.0,0.0,0.0,0.0,-7.551,1016.555,-86.15,0.896,-0.36
-3386.0,-84012.0,133773.0,272.0,0.0,0.0,0.0,-7.969,1016.635,-83.16,0.886,-0.29
-3386.0,-84012.0,133775.0,272.0,0.0,0.0,0.0,-8.383,1018.927,-83.54,0.853,-0.29
-3385.0,-84011.0,133777.0,272.0,0.0,0.0,0.0,-8.046,1021.078,-86.41,0.852,-0.33
-3384.0,-84011.0,133778.0,272.0,0.0,0.0,0.0,-7.999,1018.055,-88.49,0.862,-0.32
-3382.0,-84009.0,133780.0,272.0,0.0,0.0,0.0,-7.991,1015.478,-87.91,1.008,-0.31
-3381.0,-84008.0,133782.0,272.0,0.0,0.0,0.0,-8.034,1016.248,-87.58,0.961,-0.32
-3380.0,-84006.0,133784.0,270.0,0.0,0.0,0.0,-8.017,1016.527,-87.79,1.022,-0.31
-3380.0,-84005.0,133785.0,270.0,0.0,0.0,0.0,-10.415,1016.442,-87.77,0.935,-0.31
-3381.0,-84004.0,133787.0,270.0,0.0,0.0,0.0,-12.765,1016.55,-87.82,0.93,-0.32
-3381.0,-84003.0,133789.0,270.0,0.0,0.0,0.0,-12.197,1016.606,-87.8,0.974,-0.32
-3381.0,-84002.0,133791.0,270.0,0.0,0.0,0.0,-11.911,1016.654,-87.8,0.969,-0.32
-3381.0,-84000.0,133792.0,270.0,0.0,0.0,0.0,-12.091,1016.645,-87.81,0.959,-0.18
-3381.0,-83999.0,133793.0,270.0,0.0,0.0,0.0,-12.054,1016.633,-87.8,0.962,-0.22
-3381.0,-83998.0,133794.0,270.0,0.0,0.0,0.0,-12.152,1016.689,-85.42,0.956,-0.16
-3380.0,-83999.0,133795.0,270.0,0.0,0.0,0.0,-12.232,1016.731,-83.08,0.814,-0.24
-3380.0,-83999.0,133797.0,270.0,0.0,0.0,0.0,-12.257,1016.671,-83.67,0.869,-0.39
-3380.0,-83999.0,133799.0,270.0,0.0,0.0,0.0,-12.274,1016.62,-83.98,0.801,-0.3
-3380.0,-83999.0,133801.0,270.0,0.0,0.0,0.0,-12.297,1014.233,-83.76,0.883,-0.37
-3380.0,-83998.0,133803.0,270.0,0.0,0.0,0.0,-12.286,1011.891,-83.76,1.035,-0.3
-3380.0,-83998.0,133804.0,270.0,0.0,0.0,0.0,-12.227,1012.433,-83.76,0.798,-0.28
-3381.0,-83997.0,133806.0,270.0,0.0,0.0,0.0,-12.158,1012.724,-83.78,0.917,-0.33
-3381.0,-83999.0,133810.0,271.0,0.0,0.0,0.0,-12.062,1015.008,-83.82,0.755,-0.31
-3381.0,-83999.0,133811.0,271.0,0.0,0.0,0.0,-12.043,1017.32,-83.86,0.892,-0.32
-3381.0,-83998.0,133813.0,271.0,0.0,0.0,0.0,-12.072,1014.415,-83.8,0.876,-0.31
-3381.0,-83997.0,133815.0,271.0,0.0,0.0,0.0,-9.724,1014.116,-83.75,1.081,-0.31
-3380.0,-83997.0,133817.0,271.0,0.0,0.0,0.0,-9.791,1017.152,-83.82,0.923,-0.32
-3381.0,-83996.0,133818.0,271.0,0.0,0.0,0.0,-12.729,1016.892,-83.86,0.974,-0.32
-3381.0,-83996.0,133820.0,271.0,0.0,0.0,0.0,-12.476,1016.491,-83.85,0.951,-0.32
-3381.0,-83995.0,133822.0,271.0,0.0,0.0,0.0,-12.003,1019.104,-83.89,0.938,-0.32
-3381.0,-83995.0,133824.0,270.0,0.0,0.0,0.0,-12.289,1021.514,-81.55,0.969,-0.32
-3381.0,-83995.0,133825.0,270.0,0.0,0.0,0.0,-12.315,1021.082,-79.2,0.968,-0.32
-3381.0,-83996.0,133827.0,270.0,0.0,0.0,0.0,-12.32,1020.727,-79.79,0.949,-0.32
-3381.0,-83996.0,133829.0,270.0,0.0,0.0,0.0,-12.269,1020.878,-80.1,0.957,-0.32
-3381.0,-83996.0,133831.0,270.0,0.0,0.0,0.0,-12.284,1020.798,-79.93,0.958,-0.32
-3381.0,-83996.0,133833.0,270.0,0.0,0.0,0.0,-12.197,1020.661,-82.36,0.955,-0.32
-3381.0,-83996.0,133834.0,270.0,0.0,0.0,0.0,-12.108,1020.517,-84.69,0.814,-0.32
-3381.0,-83999.0,133838.0,269.0,0.0,0.0,0.0,-7.549,1015.885,-81.28,0.557,-0.32
-3380.0,-84000.0,133840.0,269.0,0.0,0.0,0.0,-8.029,1016.304,-84.4,0.627,-0.32
-3379.0,-84000.0,133841.0,269.0,0.0,0.0,0.0,-8.425,1016.638,-81.7,0.798,-0.18
-3378.0,-84001.0,133842.0,269.0,0.0,0.0,0.0,-8.354,1016.48,-78.88,0.794,-0.22
-3378.0,-84001.0,133843.0,269.0,0.0,0.0,0.0,-10.758,1016.439,-79.72,0.973,-0.16
-3378.0,-84002.0,133845.0,269.0,0.0,0.0,0.0,-13.085,1016.417,-80.03,0.812,-0.24
-3378.0,-84003.0,133847.0,269.0,0.0,0.0,0.0,-12.559,1016.486,-79.87,0.732,-0.39
-3378.0,-84004.0,133849.0,269.0,0.0,0.0,0.0,-12.275,1016.584,-79.87,0.898,-0.3
-3378.0,-84006.0,133851.0,268.0,0.0,0.0,0.0,-12.459,1016.726,-79.89,0.628,-0.37
-3379.0,-84006.0,133852.0,268.0,0.0,0.0,0.0,-12.395,1016.846,-79.91,0.857,-0.3
-3379.0,-84007.0,133854.0,268.0,0.0,0.0,0.0,-12.347,1016.915,-79.88,0.857,-0.28
-3379.0,-84007.0,133856.0,268.0,0.0,0.0,0.0,-12.264,1016.937,-79.89,0.823,-0.33
-3379.0,-84007.0,133858.0,268.0,0.0,0.0,0.0,-12.223,1016.921,-79.89,1.096,-0.33
-3379.0,-84007.0,133859.0,268.0,0.0,0.0,0.0,-12.188,1016.894,-79.89,0.925,-0.31
-3379.0,-84008.0,133861.0,268.0,0.0,0.0,0.0,-12.176,1016.88,-79.89,0.825,-0.32
-3379.0,-84008.0,133863.0,268.0,0.0,0.0,0.0,-9.817,1016.867,-79.85,0.858,-0.31
-3378.0,-84009.0,133865.0,269.0,0.0,0.0,0.0,-7.519,1016.863,-79.8,0.768,-0.31
-3378.0,-84011.0,133866.0,269.0,0.0,0.0,0.0,-10.509,1016.892,-79.86,0.741,-0.32
-3378.0,-84011.0,133868.0,269.0,0.0,0.0,0.0,-10.805,1014.519,-79.82,0.805,-0.18
-3378.0,-84013.0,133869.0,269.0,0.0,0.0,0.0,-10.143,1012.16,-79.76,0.675,-0.22
-3377.0,-84014.0,133870.0,269.0,0.0,0.0,0.0,-10.345,1014.924,-82.21,0.625,-0.16
-3377.0,-84014.0,133871.0,269.0,0.0,0.0,0.0,-7.855,1014.986,-84.51,0.692,-0.24
-3376.0,-84015.0,133873.0,269.0,0.0,0.0,0.0,-10.389,1011.923,-83.9,0.723,-0.39
-3376.0,-84016.0,133875.0,269.0,0.0,0.0,0.0,-13.248,1014.573,-83.7,0.628,-0.3
-3376.0,-84016.0,133877.0,270.0,0.0,0.0,0.0,-12.488,1017.371,-81.52,0.899,-0.37
-3376.0,-84018.0,133879.0,270.0,0.0,0.0,0.0,-12.325,1016.696,-79.12,0.646,-0.3
-3376.0,-84019.0,133880.0,270.0,0.0,0.0,0.0,-12.366,1016.459,-79.72,0.803,-0.28
-3376.0,-84019.0,133882.0,270.0,0.0,0.0,0.0,-12.273,1016.667,-80.01,0.923,-0.33
-3377.0,-84020.0,133884.0,270.0,0.0,0.0,0.0,-12.222,1016.754,-79.85,0.808,-0.33
-3377.0,-84019.0,133885.0,270.0,0.0,0.0,0.0,-12.164,1016.833,-79.89,1.064,-0.17
-3377.0,-84019.0,133887.0,270.0,0.0,0.0,0.0,-12.104,1016.816,-82.27,0.939,-0.37
-3377.0,-84019.0,133889.0,270.0,0.0,0.0,0.0,-12.04,1016.83,-84.63,0.824,-0.25
-3377.0,-84019.0,133891.0,270.0,0.0,0.0,0.0,-12.097,1016.906,-84.02,0.851,-0.39
-3377.0,-84019.0,133893.0,270.0,0.0,0.0,0.0,-12.156,1016.947,-83.72,0.772,-0.47
-3377.0,-84020.0,133895.0,270.0,0.0,0.0,0.0,-12.179,1016.927,-83.89,0.735,-0.23
-3377.0,-84019.0,133897.0,270.0,0.0,0.0,0.0,-12.263,1016.945,-81.45,0.945,-0.38
-3377.0,-84021.0,133898.0,270.0,0.0,0.0,0.0,-12.32,1016.924,-79.13,0.771,-0.25
-3377.0,-84021.0,133900.0,270.0,0.0,0.0,0.0,-12.277,1016.788,-79.7,0.926,-0.31
-3378.0,-84021.0,133902.0,270.0,0.0,0.0,0.0,-12.241,1019.033,-80.07,1.005,-0.36
-3378.0,-84022.0,133904.0,270.0,0.0,0.0,0.0,-12.252,1018.942,-79.9,0.755,-0.31
-3378.0,-84022.0,133905.0,270.0,0.0,0.0,0.0,-12.361,1016.162,-77.49,0.926,-0.3
-3378.0,-84024.0,133907.0,270.0,0.0,0.0,0.0,-12.453,1016.567,-75.15,0.781,-0.32
-3378.0,-84026.0,133909.0,270.0,0.0,0.0,0.0,-12.442,1017.068,-75.77,0.69,-0.31
-3378.0,-84027.0,133911.0,270.0,0.0,0.0,0.0,-12.441,1016.889,-76.06,0.949,-0.32
-3378.0,-84028.0,133913.0,270.0,0.0,0.0,0.0,-12.45,1016.961,-75.89,0.782,-0.32
-3379.0,-84029.0,133915.0,270.0,0.0,0.0,0.0,-12.448,1016.919,-75.94,0.919,-0.31
-3379.0,-84030.0,133916.0,270.0,0.0,0.0,0.0,-14.74,1016.866,-78.36,0.864,-0.32
-3380.0,-84030.0,133918.0,270.0,0.0,0.0,0.0,-16.977,1016.772,-80.76,0.802,-0.32
-3381.0,-84032.0,133920.0,269.0,0.0,0.0,0.0,-16.47,1019.221,-77.8,0.711,-0.32
-3381.0,-84033.0,133922.0,269.0,0.0,0.0,0.0,-16.168,1019.192,-77.54,0.77,-0.32
-3382.0,-84033.0,133924.0,269.0,0.0,0.0,0.0,-13.794,1016.097,-82.93,0.827,-0.32
-3382.0,-84033.0,133925.0,269.0,0.0,0.0,0.0,-11.36,1016.265,-84.9,0.873,-0.32
-3382.0,-84032.0,133927.0,269.0,0.0,0.0,0.0,-11.987,1016.755,-83.87,1.084,-0.32
-3382.0,-84032.0,133929.0,269.0,0.0,0.0,0.0,-12.28,1016.542,-83.76,0.758,-0.32
-3382.0,-84032.0,133930.0,269.0,0.0,0.0,0.0,-12.123,1016.61,-83.88,0.878,-0.32
-3382.0,-84032.0,133932.0,269.0,0.0,0.0,0.0,-12.166,1016.632,-83.86,0.781,-0.32
-3382.0,-84032.0,133934.0,269.0,0.0,0.0,0.0,-12.168,1014.369,-83.79,0.845,-0.32
-3382.0,-84031.0,133936.0,269.0,0.0,0.0,0.0,-12.204,1012.086,-83.75,1.038,-0.32
-3382.0,-84031.0,133937.0,269.0,0.0,0.0,0.0,-12.185,1012.662,-83.78,0.798,-0.32
-3382.0,-84031.0,133939.0,269.0,0.0,0.0,0.0,-12.266,1013.042,-81.38,0.895,-0.32
-3382.0,-84032.0,133941.0,269.0,0.0,0.0,0.0,-12.348,1012.943,-79.04,0.768,-0.32
-3382.0,-84033.0,133943.0,269.0,0.0,0.0,0.0,-14.698,1012.975,-79.68,0.838,-0.32
-3383.0,-84032.0,133945.0,269.0,0.0,0.0,0.0,-17.009,1012.956,-80.03,1.037,-0.32
-3384.0,-84032.0,133947.0,269.0,0.0,0.0,0.0,-16.429,1012.947,-79.85,0.943,-0.32
-3384.0,-84033.0,133948.0,270.0,0.0,0.0,0.0,-13.747,1012.888,-79.84,0.849,-0.32
-3384.0,-84034.0,133950.0,270.0,0.0,0.0,0.0,-11.503,1015.134,-82.23,0.686,-0.32
-3384.0,-84035.0,133952.0,270.0,0.0,0.0,0.0,-11.954,1017.371,-84.64,0.512,-0.32
-3384.0,-84036.0,133954.0,270.0,0.0,0.0,0.0,-12.292,1016.82,-84.03,0.631,-0.46
-3385.0,-84037.0,133956.0,270.0,0.0,0.0,0.0,-12.116,1016.492,-83.72,0.655,-0.41
-3385.0,-84037.0,133959.0,270.0,0.0,0.0,0.0,-12.158,1016.566,-83.89,0.83,-0.47
-3385.0,-84037.0,133961.0,270.0,0.0,0.0,0.0,-12.123,1016.421,-83.84,0.9,-0.39
-3385.0,-84037.0,133963.0,270.0,0.0,0.0,0.0,-12.18,1016.448,-81.47,0.882,-0.24
-3384.0,-84036.0,133964.0,270.0,0.0,0.0,0.0,-12.212,1016.519,-79.11,1.017,-0.33
-3384.0,-84037.0,133965.0,270.0,0.0,0.0,0.0,-12.18,1016.593,-79.72,0.749,-0.13
-3384.0,-84038.0,133967.0,270.0,0.0,0.0,0.0,-14.586,1014.395,-80.02,0.751,-0.25
-3385.0,-84040.0,133968.0,270.0,0.0,0.0,0.0,-16.985,1012.277,-79.84,0.544,-0.2
-3386.0,-84043.0,133969.0,270.0,0.0,0.0,0.0,-14.111,1012.935,-79.85,0.444,-0.23
-3386.0,-84044.0,133971.0,270.0,0.0,0.0,0.0,-11.576,1013.23,-79.79,0.701,-0.38
-3386.0,-84045.0,133973.0,270.0,0.0,0.0,0.0,-12.397,1012.991,-79.82,0.776,-0.31
-3386.0,-84045.0,133975.0,270.0,0.0,0.0,0.0,-12.666,1015.241,-79.86,0.974,-0.37
-3386.0,-84045.0,133977.0,270.0,0.0,0.0,0.0,-12.381,1017.299,-82.29,0.893,-0.3
-3386.0,-84045.0,133978.0,270.0,0.0,0.0,0.0,-12.334,1016.674,-82.23,0.83,-0.15
-3386.0,-84045.0,133979.0,270.0,0.0,0.0,0.0,-12.265,1016.41,-81.69,0.797,-0.24
-3386.0,-84045.0,133980.0,270.0,0.0,0.0,0.0,-12.117,1016.586,-84.31,0.842,-0.17
-3386.0,-84045.0,133981.0,270.0,0.0,0.0,0.0,-9.775,1016.737,-81.76,0.862,-0.24
-3386.0,-84046.0,133984.0,270.0,0.0,0.0,0.0,-9.942,1016.946,-78.91,0.854,-0.39
-3385.0,-84046.0,133985.0,270.0,0.0,0.0,0.0,-10.41,1016.876,-82.12,0.841,-0.3
-3385.0,-84046.0,133987.0,270.0,0.0,0.0,0.0,-7.836,1016.873,-82.25,0.838,-0.37
-3384.0,-84046.0,133989.0,270.0,0.0,0.0,0.0,-8.063,1016.962,-79.2,0.986,-0.3
-3384.0,-84046.0,133990.0,270.0,0.0,0.0,0.0,-10.928,1016.931,-79.55,0.942,-0.14
-3384.0,-84046.0,133991.0,270.0,0.0,0.0,0.0,-12.979,1016.89,-80.07,0.86,-0.24
-3384.0,-84047.0,133992.0,270.0,0.0,0.0,0.0,-12.449,1016.857,-79.87,0.824,-0.17
-3384.0,-84048.0,133995.0,270.0,0.0,0.0,0.0,-12.106,1016.834,-79.89,0.752,-0.38
-3384.0,-84048.0,133997.0,270.0,0.0,0.0,0.0,-12.339,1016.82,-79.87,0.878,-0.48
-3385.0,-84048.0,134000.0,270.0,0.0,0.0,0.0,-12.313,1016.79,-79.91,1.026,-0.45
-3385.0,-84048.0,134002.0,270.0,0.0,0.0,0.0,-12.324,1016.756,-79.89,0.924,-0.44
-3385.0,-84048.0,134003.0,269.0,0.0,0.0,0.0,-14.571,1016.668,-82.32,0.997,-0.23
-3386.0,-84047.0,134005.0,269.0,0.0,0.0,0.0,-16.755,1016.613,-84.71,0.916,-0.3
-3387.0,-84046.0,134007.0,269.0,0.0,0.0,0.0,-16.125,1016.667,-84.1,0.907,-0.28
-3387.0,-84046.0,134008.0,269.0,0.0,0.0,0.0,-15.807,1016.725,-83.79,0.961,-0.35
-3388.0,-84045.0,134010.0,269.0,0.0,0.0,0.0,-15.988,1019.106,-84.01,0.951,-0.34
-3389.0,-84045.0,134012.0,269.0,0.0,0.0,0.0,-16.004,1019.074,-83.96,0.935,-0.3
-3389.0,-84044.0,134014.0,269.0,0.0,0.0,0.0,-16.094,1016.203,-83.92,0.944,-0.31
-3390.0,-84043.0,134015.0,269.0,0.0,0.0,0.0,-16.127,1016.465,-83.91,0.938,-0.32
-3391.0,-84042.0,134017.0,270.0,0.0,0.0,0.0,-16.091,1016.822,-86.32,0.939,-0.32
-3391.0,-84041.0,134019.0,270.0,0.0,0.0,0.0,-16.025,1016.499,-88.65,0.945,-0.32
-3392.0,-84041.0,134020.0,270.0,0.0,0.0,0.0,-13.743,1016.613,-85.62,0.796,-0.18
-3392.0,-84041.0,134021.0,270.0,0.0,0.0,0.0,-13.874,1016.659,-82.98,0.844,-0.22
-3393.0,-84041.0,134022.0,270.0,0.0,0.0,0.0,-16.74,1016.667,-83.8,0.782,-0.16
-3393.0,-84041.0,134024.0,270.0,0.0,0.0,0.0,-16.451,1016.608,-84.05,0.864,-0.25
-3394.0,-84040.0,134025.0,270.0,0.0,0.0,0.0,-16.0,1016.571,-83.88,1.016,-0.25
-3394.0,-84039.0,134026.0,270.0,0.0,0.0,0.0,-13.86,1016.526,-83.87,0.924,-0.21
-3393.0,-84038.0,134028.0,269.0,0.0,0.0,0.0,-11.502,1016.492,-83.83,0.992,-0.21
-3393.0,-84038.0,134029.0,269.0,0.0,0.0,0.0,-12.194,1016.616,-81.47,0.918,-0.22
-3393.0,-84039.0,134031.0,269.0,0.0,0.0,0.0,-12.531,1016.767,-79.12,0.907,-0.36
-3393.0,-84039.0,134033.0,269.0,0.0,0.0,0.0,-12.335,1016.814,-79.71,0.956,-0.32
-3393.0,-84039.0,134035.0,269.0,0.0,0.0,0.0,-12.334,1016.862,-80.02,0.949,-0.38
-3392.0,-84039.0,134037.0,269.0,0.0,0.0,0.0,-12.274,1016.901,-79.85,0.934,-0.29
-3392.0,-84039.0,134038.0,269.0,0.0,0.0,0.0,-12.238,1016.907,-79.89,0.941,-0.29
-3392.0,-84039.0,134040.0,269.0,0.0,0.0,0.0,-12.171,1016.893,-79.88,0.936,-0.33
-3393.0,-84039.0,134042.0,268.0,0.0,0.0,0.0,-14.516,1016.888,-79.95,0.937,-0.32
-3394.0,-84039.0,134044.0,268.0,0.0,0.0,0.0,-16.839,1016.877,-79.98,0.942,-0.32
-3394.0,-84039.0,134045.0,268.0,0.0,0.0,0.0,-16.27,1016.839,-79.97,0.938,-0.32
-3395.0,-84039.0,134046.0,268.0,0.0,0.0,0.0,-16.0,1016.81,-79.97,0.937,-0.17
-3395.0,-84039.0,134048.0,268.0,0.0,0.0,0.0,-13.835,1016.773,-79.92,0.939,-0.22
-3395.0,-84040.0,134049.0,268.0,0.0,0.0,0.0,-11.516,1016.744,-79.88,0.793,-0.17
-3395.0,-84040.0,134050.0,268.0,0.0,0.0,0.0,-12.151,1019.093,-79.93,0.843,-0.24
-3395.0,-84041.0,134052.0,268.0,0.0,0.0,0.0,-12.481,1021.384,-79.99,0.779,-0.39
-3395.0,-84042.0,134054.0,269.0,0.0,0.0,0.0,-12.388,1018.442,-79.92,0.861,-0.3
-3395.0,-84041.0,134056.0,269.0,0.0,0.0,0.0,-12.378,1015.733,-82.26,1.013,-0.37
-3395.0,-84040.0,134058.0,269.0,0.0,0.0,0.0,-12.254,1016.363,-84.61,0.921,-0.3
-3395.0,-84040.0,134059.0,269.0,0.0,0.0,0.0,-12.309,1016.721,-81.64,0.99,-0.29
-3395.0,-84040.0,134061.0,269.0,0.0,0.0,0.0,-12.228,1016.6,-81.38,0.915,-0.33
-3395.0,-84039.0,134063.0,269.0,0.0,0.0,0.0,-12.065,1016.569,-84.48,0.904,-0.33
-3396.0,-84040.0,134065.0,269.0,0.0,0.0,0.0,-12.121,1016.738,-81.76,0.808,-0.31
-3396.0,-84040.0,134067.0,269.0,0.0,0.0,0.0,-12.121,1016.821,-81.35,0.851,-0.32
-3396.0,-84040.0,134068.0,270.0,0.0,0.0,0.0,-12.03,1016.711,-84.47,0.773,-0.31
-3396.0,-84040.0,134070.0,270.0,0.0,0.0,0.0,-12.145,1016.796,-81.76,0.863,-0.32
-3395.0,-84040.0,134072.0,270.0,0.0,0.0,0.0,-12.27,1016.85,-78.97,1.008,-0.32
-3395.0,-84041.0,134074.0,270.0,0.0,0.0,0.0,-12.277,1016.755,-79.74,0.918,-0.32
-3394.0,-84041.0,134076.0,270.0,0.0,0.0,0.0,-10.0,1016.767,-77.58,0.992,-0.32
-3393.0,-84042.0,134077.0,270.0,0.0,0.0,0.0,-7.779,1016.828,-75.06,0.914,-0.32
-3393.0,-84043.0,134079.0,270.0,0.0,0.0,0.0,-8.354,1016.843,-75.66,0.756,-0.32
-3393.0,-84044.0,134081.0,270.0,0.0,0.0,0.0,-11.023,1016.906,-76.03,0.857,-0.32
-3393.0,-84046.0,134083.0,270.0,0.0,0.0,0.0,-13.175,1016.972,-75.92,0.786,-0.32
-3393.0,-84047.0,134085.0,270.0,0.0,0.0,0.0,-12.624,1016.974,-75.93,0.854,-0.32
-3392.0,-84047.0,134087.0,270.0,0.0,0.0,0.0,-9.926,1016.925,-75.88,1.013,-0.32
-3391.0,-84047.0,134089.0,270.0,0.0,0.0,0.0,-10.144,1019.232,-75.95,1.06,-0.32
-3392.0,-84048.0,134090.0,270.0,0.0,0.0,0.0,-12.895,1021.436,-78.42,0.935,-0.32
-3391.0,-84048.0,134092.0,270.0,0.0,0.0,0.0,-12.55,1020.777,-80.75,0.98,-0.32
-3391.0,-84049.0,134096.0,270.0,0.0,0.0,0.0,-12.396,1020.861,-77.45,0.797,-0.32
-3390.0,-84050.0,134098.0,271.0,0.0,0.0,0.0,-12.428,1018.59,-75.24,1.036,-0.32
-3390.0,-84051.0,134100.0,271.0,0.0,0.0,0.0,-12.371,1016.202,-78.13,0.859,-0.32
-3390.0,-84050.0,134101.0,271.0,0.0,0.0,0.0,-12.333,1016.721,-78.4,1.01,-0.32
-3390.0,-84051.0,134103.0,271.0,0.0,0.0,0.0,-12.451,1017.109,-75.3,0.942,-0.32
-3390.0,-84052.0,134105.0,271.0,0.0,0.0,0.0,-12.443,1016.896,-75.63,0.881,-0.32
-3390.0,-84052.0,134107.0,271.0,0.0,0.0,0.0,-9.967,1016.796,-78.44,0.943,-0.32
-3389.0,-84052.0,134109.0,271.0,0.0,0.0,0.0,-7.58,1016.69,-80.54,0.948,-0.32
-3389.0,-84052.0,134110.0,271.0,0.0,0.0,0.0,-8.182,1016.737,-80.0,0.924,-0.32
-3387.0,-84053.0,134112.0,270.0,0.0,0.0,0.0,-8.497,1016.743,-79.67,0.938,-0.32
-3387.0,-84053.0,134113.0,270.0,0.0,0.0,0.0,-10.696,1016.766,-79.92,0.931,-0.18
-3387.0,-84053.0,134115.0,270.0,0.0,0.0,0.0,-13.064,1016.8,-79.9,0.926,-0.23
-3386.0,-84053.0,134116.0,270.0,0.0,0.0,0.0,-10.103,1016.77,-79.85,0.936,-0.16
-3386.0,-84053.0,134117.0,270.0,0.0,0.0,0.0,-7.506,1019.094,-79.84,0.933,-0.24
-3385.0,-84053.0,134119.0,270.0,0.0,0.0,0.0,-8.269,1021.391,-79.91,0.93,-0.39
-3385.0,-84053.0,134121.0,270.0,0.0,0.0,0.0,-11.025,1020.92,-77.56,0.932,-0.3
-3385.0,-84054.0,134122.0,270.0,0.0,0.0,0.0,-10.909,1020.699,-75.21,0.931,-0.23
-3384.0,-84055.0,134124.0,269.0,0.0,0.0,0.0,-7.984,1020.813,-75.75,0.931,-0.2
-3383.0,-84056.0,134125.0,269.0,0.0,0.0,0.0,-8.216,1020.76,-76.06,0.787,-0.13
-3383.0,-84057.0,134126.0,269.0,0.0,0.0,0.0,-8.59,1020.69,-78.29,0.836,-0.26
-3382.0,-84058.0,134128.0,269.0,0.0,0.0,0.0,-8.275,1018.228,-80.62,0.772,-0.4
-3382.0,-84059.0,134130.0,269.0,0.0,0.0,0.0,-8.451,1016.034,-77.58,0.855,-0.3
-3382.0,-84059.0,134132.0,269.0,0.0,0.0,0.0,-10.889,1016.69,-75.02,1.006,-0.37
-3382.0,-84060.0,134135.0,269.0,0.0,0.0,0.0,-13.2,1016.947,-75.81,0.914,-0.43
-3382.0,-84061.0,134137.0,269.0,0.0,0.0,0.0,-12.559,1016.756,-76.06,0.982,-0.38
-3382.0,-84061.0,134139.0,268.0,0.0,0.0,0.0,-12.134,1016.739,-78.29,0.908,-0.49
-3382.0,-84061.0,134142.0,268.0,0.0,0.0,0.0,-12.182,1016.701,-80.65,0.896,-0.4
-3382.0,-84061.0,134142.0,268.0,0.0,0.0,0.0,-12.109,1016.807,-80.07,0.946,-0.1
-3382.0,-84061.0,134144.0,268.0,0.0,0.0,0.0,-9.731,1016.838,-79.73,0.939,-0.24
-3381.0,-84061.0,134144.0,268.0,0.0,0.0,0.0,-7.403,1016.847,-79.84,0.924,-0.11
-3381.0,-84061.0,134146.0,268.0,0.0,0.0,0.0,-10.37,1016.801,-82.25,0.931,-0.26
-3381.0,-84060.0,134148.0,268.0,0.0,0.0,0.0,-13.03,1016.724,-84.64,0.926,-0.43
-3381.0,-84059.0,134150.0,268.0,0.0,0.0,0.0,-10.041,1016.693,-83.97,0.927,-0.29
-3381.0,-84059.0,134152.0,268.0,0.0,0.0,0.0,-9.932,1016.671,-83.68,0.932,-0.36
-3381.0,-84058.0,134153.0,268.0,0.0,0.0,0.0,-13.009,1016.663,-83.9,0.928,-0.3
-3381.0,-84058.0,134155.0,268.0,0.0,0.0,0.0,-12.66,1016.636,-83.85,0.927,-0.28
-3381.0,-84058.0,134157.0,268.0,0.0,0.0,0.0,-12.103,1016.615,-83.85,0.784,-0.34
-3381.0,-84058.0,134159.0,268.0,0.0,0.0,0.0,-12.217,1016.607,-83.84,0.833,-0.33
-3381.0,-84058.0,134160.0,268.0,0.0,0.0,0.0,-12.112,1016.596,-83.85,0.769,-0.31
-3381.0,-84058.0,134162.0,268.0,0.0,0.0,0.0,-12.076,1018.923,-83.9,0.852,-0.32
-3381.0,-84057.0,134164.0,268.0,0.0,0.0,0.0,-12.024,1018.84,-83.89,1.003,-0.32
-3381.0,-84056.0,134166.0,269.0,0.0,0.0,0.0,-12.067,1015.941,-83.84,0.911,-0.32
-3381.0,-84056.0,134167.0,269.0,0.0,0.0,0.0,-12.086,1016.211,-83.84,0.98,-0.18
-3381.0,-84055.0,134168.0,269.0,0.0,0.0,0.0,-12.108,1016.708,-83.85,0.906,-0.23
-3381.0,-84055.0,134169.0,269.0,0.0,0.0,0.0,-12.155,1016.556,-83.85,0.894,-0.16
-3381.0,-84055.0,134170.0,269.0,0.0,0.0,0.0,-12.282,1016.764,-81.46,0.798,-0.24
-3381.0,-84056.0,134172.0,269.0,0.0,0.0,0.0,-12.412,1016.875,-79.12,0.842,-0.39
-3381.0,-84056.0,134174.0,269.0,0.0,0.0,0.0,-12.358,1016.819,-82.1,0.763,-0.3
-3382.0,-84056.0,134176.0,269.0,0.0,0.0,0.0,-12.364,1016.774,-82.35,0.853,-0.37
-3382.0,-84056.0,134178.0,270.0,0.0,0.0,0.0,-12.438,1016.835,-79.26,0.999,-0.3
-3382.0,-84056.0,134179.0,270.0,0.0,0.0,0.0,-12.366,1016.767,-79.59,0.908,-0.29
-3382.0,-84056.0,134181.0,270.0,0.0,0.0,0.0,-12.276,1016.699,-80.05,0.982,-0.33
-3382.0,-84056.0,134183.0,270.0,0.0,0.0,0.0,-9.846,1016.678,-79.81,0.904,-0.33
-3381.0,-84057.0,134185.0,270.0,0.0,0.0,0.0,-7.487,1016.686,-79.81,0.891,-0.31
-3380.0,-84057.0,134187.0,270.0,0.0,0.0,0.0,-8.142,1016.831,-77.41,0.942,-0.32
-3380.0,-84058.0,134189.0,270.0,0.0,0.0,0.0,-8.534,1016.967,-75.11,0.935,-0.31
-3380.0,-84059.0,134190.0,270.0,0.0,0.0,0.0,-10.746,1017.0,-75.72,0.92,-0.32
-3379.0,-84059.0,134192.0,270.0,0.0,0.0,0.0,-10.679,1016.915,-78.42,0.928,-0.32
-3379.0,-84059.0,134194.0,270.0,0.0,0.0,0.0,-7.724,1016.806,-80.54,0.922,-0.32
-3379.0,-84060.0,134196.0,270.0,0.0,0.0,0.0,-10.441,1016.835,-80.04,0.778,-0.32
-3379.0,-84060.0,134198.0,270.0,0.0,0.0,0.0,-13.171,1016.759,-82.16,0.834,-0.32
-3379.0,-84060.0,134199.0,270.0,0.0,0.0,0.0,-12.3,1016.624,-84.67,0.766,-0.32
-3379.0,-84060.0,134201.0,270.0,0.0,0.0,0.0,-12.075,1016.597,-84.02,0.847,-0.32
-3379.0,-84058.0,134203.0,270.0,0.0,0.0,0.0,-12.15,1014.122,-86.07,1.0,-0.32
-3379.0,-84057.0,134205.0,270.0,0.0,0.0,0.0,-12.142,1011.78,-86.13,0.908,-0.32
-3379.0,-84057.0,134207.0,270.0,0.0,0.0,0.0,-12.221,1012.45,-83.18,0.976,-0.46
-3380.0,-84056.0,134209.0,270.0,0.0,0.0,0.0,-12.181,1012.767,-83.48,0.903,-0.41
-3380.0,-84056.0,134212.0,270.0,0.0,0.0,0.0,-12.173,1012.646,-83.93,0.89,-0.47
-3380.0,-84055.0,134214.0,270.0,0.0,0.0,0.0,-12.145,1012.771,-83.73,0.94,-0.39
-3380.0,-84055.0,134215.0,270.0,0.0,0.0,0.0,-12.104,1012.823,-83.78,0.933,-0.24
-3380.0,-84054.0,134217.0,270.0,0.0,0.0,0.0,-12.154,1012.966,-81.36,0.918,-0.33
-3380.0,-84055.0,134219.0,270.0,0.0,0.0,0.0,-12.218,1013.047,-79.06,0.925,-0.27
-3380.0,-84055.0,134220.0,270.0,0.0,0.0,0.0,-12.224,1013.018,-79.63,0.92,-0.34
-3380.0,-84054.0,134222.0,271.0,0.0,0.0,0.0,-12.191,1012.899,-82.33,0.921,-0.35
-3380.0,-84054.0,134224.0,271.0,0.0,0.0,0.0,-12.186,1012.783,-84.5,0.926,-0.3
-3381.0,-84054.0,134226.0,271.0,0.0,0.0,0.0,-12.247,1015.117,-84.0,0.778,-0.31
-3381.0,-84054.0,134228.0,271.0,0.0,0.0,0.0,-12.277,1017.392,-83.73,0.826,-0.32
-3381.0,-84054.0,134229.0,271.0,0.0,0.0,0.0,-12.36,1016.865,-81.51,0.764,-0.18
-3381.0,-84055.0,134230.0,271.0,0.0,0.0,0.0,-12.352,1016.531,-81.5,0.701,-0.23
-3381.0,-84055.0,134231.0,271.0,0.0,0.0,0.0,-12.318,1016.637,-82.05,0.903,-0.17
-3381.0,-84056.0,134232.0,271.0,0.0,0.0,0.0,-12.398,1016.648,-79.42,0.747,-0.24
-3381.0,-84057.0,134234.0,271.0,0.0,0.0,0.0,-14.774,1016.645,-79.59,0.753,-0.25
-3382.0,-84057.0,134235.0,271.0,0.0,0.0,0.0,-14.716,1016.601,-80.11,0.88,-0.21
-3382.0,-84060.0,134236.0,271.0,0.0,0.0,0.0,-11.902,1016.7,-77.44,0.568,-0.21
-3382.0,-84060.0,134238.0,271.0,0.0,0.0,0.0,-12.173,1016.728,-77.57,0.819,-0.22
-3382.0,-84062.0,134240.0,271.0,0.0,0.0,0.0,-12.612,1016.747,-78.07,0.681,-0.36
-3382.0,-84064.0,134242.0,271.0,0.0,0.0,0.0,-12.46,1016.868,-75.49,0.695,-0.32
-3382.0,-84065.0,134244.0,271.0,0.0,0.0,0.0,-12.477,1016.877,-75.59,0.908,-0.38
-3382.0,-84066.0,134245.0,271.0,0.0,0.0,0.0,-12.385,1016.863,-76.1,0.813,-0.29
-3382.0,-84066.0,134247.0,272.0,0.0,0.0,0.0,-12.37,1016.881,-75.89,1.008,-0.29
-3382.0,-84067.0,134249.0,272.0,0.0,0.0,0.0,-12.301,1016.908,-75.95,0.904,-0.33
-3382.0,-84068.0,134251.0,272.0,0.0,0.0,0.0,-12.273,1016.964,-75.91,0.946,-0.33
-3382.0,-84069.0,134253.0,272.0,0.0,0.0,0.0,-12.278,1017.036,-75.95,0.906,-0.32
-3383.0,-84069.0,134254.0,272.0,0.0,0.0,0.0,-12.294,1017.109,-75.94,0.903,-0.32
-3383.0,-84070.0,134256.0,272.0,0.0,0.0,0.0,-12.329,1017.16,-75.93,0.927,-0.31
-3383.0,-84070.0,134258.0,272.0,0.0,0.0,0.0,-12.288,1017.088,-78.33,0.928,-0.32
-3383.0,-84070.0,134260.0,272.0,0.0,0.0,0.0,-12.246,1016.982,-80.66,0.915,-0.32
-3383.0,-84071.0,134262.0,270.0,0.0,0.0,0.0,-12.294,1016.957,-80.07,0.774,-0.32
-3383.0,-84072.0,134263.0,270.0,0.0,0.0,0.0,-12.323,1016.907,-79.76,0.678,-0.32
-3383.0,-84073.0,134265.0,270.0,0.0,0.0,0.0,-12.247,1016.742,-82.32,0.664,-0.32
-3383.0,-84075.0,134267.0,270.0,0.0,0.0,0.0,-12.25,1016.659,-82.23,0.541,-0.32
-3383.0,-84076.0,134269.0,270.0,0.0,0.0,0.0,-12.262,1016.577,-81.7,0.679,-0.32
-3383.0,-84077.0,134270.0,270.0,0.0,0.0,0.0,-12.167,1016.376,-84.3,0.578,-0.32
-3383.0,-84079.0,134272.0,270.0,0.0,0.0,0.0,-9.786,1016.265,-84.16,0.48,-0.32
-3383.0,-84079.0,134274.0,270.0,0.0,0.0,0.0,-9.928,1016.312,-81.24,0.695,-0.32
-3383.0,-84082.0,134276.0,269.0,0.0,0.0,0.0,-12.886,1018.746,-79.23,0.543,-0.32
-3382.0,-84082.0,134278.0,269.0,0.0,0.0,0.0,-10.198,1021.018,-79.75,0.842,-0.32
-3382.0,-84082.0,134279.0,269.0,0.0,0.0,0.0,-7.395,1020.466,-80.03,0.875,-0.32
-3381.0,-84083.0,134281.0,269.0,0.0,0.0,0.0,-8.217,1017.938,-79.79,0.827,-0.32
-3380.0,-84083.0,134283.0,269.0,0.0,0.0,0.0,-8.467,1018.3,-79.85,1.004,-0.32
-3380.0,-84083.0,134285.0,269.0,0.0,0.0,0.0,-8.327,1018.947,-79.86,0.871,-0.32
-3379.0,-84083.0,134287.0,269.0,0.0,0.0,0.0,-8.434,1016.636,-77.43,0.952,-0.32
-3379.0,-84084.0,134288.0,269.0,0.0,0.0,0.0,-8.441,1016.858,-77.47,0.92,-0.32
-3378.0,-84084.0,134290.0,267.0,0.0,0.0,0.0,-8.361,1017.352,-80.41,0.891,-0.32
-3378.0,-84084.0,134292.0,267.0,0.0,0.0,0.0,-10.724,1017.174,-80.17,0.923,-0.32
-3378.0,-84084.0,134294.0,267.0,0.0,0.0,0.0,-13.068,1017.232,-79.74,0.781,-0.32
-3378.0,-84085.0,134296.0,267.0,0.0,0.0,0.0,-12.477,1017.087,-79.94,0.815,-0.32
-3378.0,-84086.0,134297.0,267.0,0.0,0.0,0.0,-12.169,1016.996,-79.88,0.76,-0.32
-3379.0,-84086.0,134300.0,267.0,0.0,0.0,0.0,-12.324,1019.194,-79.96,0.84,-0.46
-3378.0,-84086.0,134302.0,267.0,0.0,0.0,0.0,-9.813,1021.244,-82.31,0.988,-0.41
-3378.0,-84085.0,134305.0,267.0,0.0,0.0,0.0,-9.791,1020.488,-84.66,0.902,-0.47
-3378.0,-84084.0,134307.0,268.0,0.0,0.0,0.0,-12.677,1020.183,-84.12,0.969,-0.39
-3378.0,-84084.0,134308.0,268.0,0.0,0.0,0.0,-12.383,1020.376,-83.8,0.893,-0.25
-3378.0,-84084.0,134310.0,268.0,0.0,0.0,0.0,-9.492,1020.368,-83.92,0.883,-0.33
-3377.0,-84084.0,134311.0,268.0,0.0,0.0,0.0,-7.369,1020.451,-83.84,0.786,-0.27
-3376.0,-84084.0,134313.0,268.0,0.0,0.0,0.0,-7.927,1020.52,-83.85,0.83,-0.34
-3375.0,-84085.0,134315.0,268.0,0.0,0.0,0.0,-8.327,1018.24,-83.8,0.606,-0.35
-3375.0,-84085.0,134317.0,268.0,0.0,0.0,0.0,-10.578,1015.963,-83.81,0.746,-0.3
-3375.0,-84085.0,134319.0,268.0,0.0,0.0,0.0,-13.012,1016.512,-83.86,0.828,-0.31
-3374.0,-84085.0,134320.0,269.0,0.0,0.0,0.0,-10.074,1016.706,-83.81,0.821,-0.32
-3374.0,-84084.0,134322.0,269.0,0.0,0.0,0.0,-7.467,1016.427,-83.76,0.901,-0.32
-3373.0,-84084.0,134324.0,269.0,0.0,0.0,0.0,-8.187,1018.771,-83.82,0.781,-0.32
-3372.0,-84084.0,134326.0,269.0,0.0,0.0,0.0,-8.413,1021.056,-83.87,0.773,-0.32
-3372.0,-84084.0,134327.0,269.0,0.0,0.0,0.0,-10.618,1018.213,-83.85,0.833,-0.31
-3372.0,-84084.0,134329.0,269.0,0.0,0.0,0.0,-13.012,1018.121,-81.5,0.821,-0.32
-3371.0,-84085.0,134331.0,269.0,0.0,0.0,0.0,-12.467,1021.299,-79.22,0.813,-0.32
-3372.0,-84086.0,134335.0,270.0,0.0,0.0,0.0,-12.292,1018.216,-80.05,0.807,-0.32
-3372.0,-84086.0,134336.0,270.0,0.0,0.0,0.0,-12.193,1016.047,-82.22,0.956,-0.32
-3372.0,-84086.0,134338.0,270.0,0.0,0.0,0.0,-12.208,1016.585,-82.23,0.914,-0.32
-3372.0,-84085.0,134341.0,270.0,0.0,0.0,0.0,-12.289,1017.012,-79.3,0.973,-0.46
-3372.0,-84086.0,134345.0,270.0,0.0,0.0,0.0,-12.202,1016.781,-82.45,0.882,-0.47
-3373.0,-84085.0,134348.0,270.0,0.0,0.0,0.0,-12.187,1016.802,-82.18,0.924,-0.39
-3373.0,-84085.0,134349.0,270.0,0.0,0.0,0.0,-12.252,1016.93,-79.31,0.921,-0.25
-3372.0,-84085.0,134351.0,270.0,0.0,0.0,0.0,-9.833,1016.885,-79.52,0.911,-0.33
-3372.0,-84085.0,134352.0,270.0,0.0,0.0,0.0,-9.855,1016.851,-80.03,0.914,-0.27
-3372.0,-84086.0,134354.0,270.0,0.0,0.0,0.0,-12.79,1016.864,-79.86,0.908,-0.34
-3372.0,-84086.0,134356.0,270.0,0.0,0.0,0.0,-12.559,1016.828,-79.9,0.91,-0.35
-3372.0,-84086.0,134358.0,270.0,0.0,0.0,0.0,-12.15,1016.8,-79.87,0.915,-0.3
-3373.0,-84086.0,134360.0,270.0,0.0,0.0,0.0,-12.415,1016.78,-79.91,0.912,-0.45
-3373.0,-84086.0,134363.0,270.0,0.0,0.0,0.0,-12.391,1016.765,-79.89,0.91,-0.42
-3373.0,-84086.0,134365.0,270.0,0.0,0.0,0.0,-12.417,1016.758,-79.89,0.911,-0.47
-3373.0,-84086.0,134367.0,270.0,0.0,0.0,0.0,-12.35,1016.757,-79.89,0.911,-0.39
-3373.0,-84086.0,134369.0,270.0,0.0,0.0,0.0,-12.307,1016.762,-79.89,0.911,-0.25
-3373.0,-84086.0,134371.0,270.0,0.0,0.0,0.0,-12.243,1016.768,-79.89,0.911,-0.33
-3373.0,-84086.0,134372.0,270.0,0.0,0.0,0.0,-12.114,1016.688,-82.28,0.91,-0.27
-3373.0,-84085.0,134374.0,270.0,0.0,0.0,0.0,-12.04,1016.609,-84.62,0.91,-0.34
-3373.0,-84085.0,134376.0,270.0,0.0,0.0,0.0,-12.097,1016.634,-84.03,0.91,-0.35
-3373.0,-84084.0,134379.0,270.0,0.0,0.0,0.0,-12.214,1016.642,-83.89,0.91,-0.31
-3374.0,-84083.0,134381.0,272.0,0.0,0.0,0.0,-12.238,1018.988,-83.89,0.91,-0.32
-3374.0,-84083.0,134383.0,272.0,0.0,0.0,0.0,-12.332,1019.019,-81.51,0.91,-0.32
-3374.0,-84083.0,134385.0,272.0,0.0,0.0,0.0,-12.424,1016.232,-79.1,0.91,-0.32
-3374.0,-84083.0,134386.0,272.0,0.0,0.0,0.0,-12.385,1016.486,-79.71,0.91,-0.32
-3374.0,-84083.0,134388.0,272.0,0.0,0.0,0.0,-9.959,1019.264,-80.03,0.909,-0.31
-3373.0,-84083.0,134390.0,272.0,0.0,0.0,0.0,-9.993,1019.008,-79.85,0.909,-0.32
-3373.0,-84084.0,134392.0,272.0,0.0,0.0,0.0,-10.515,1016.192,-79.85,0.909,-0.32
-3373.0,-84084.0,134393.0,272.0,0.0,0.0,0.0,-10.269,1016.441,-79.84,0.909,-0.18
-3373.0,-84084.0,134394.0,271.0,0.0,0.0,0.0,-12.691,1016.964,-79.91,0.909,-0.23
-3373.0,-84084.0,134395.0,271.0,0.0,0.0,0.0,-10.257,1016.714,-79.85,0.909,-0.16
-3372.0,-84084.0,134397.0,271.0,0.0,0.0,0.0,-7.357,1016.654,-82.19,0.763,-0.24
-3371.0,-84084.0,134399.0,271.0,0.0,0.0,0.0,-8.148,1016.555,-84.54,0.813,-0.39
-3371.0,-84084.0,134400.0,271.0,0.0,0.0,0.0,-8.429,1016.596,-83.95,0.75,-0.3
-3370.0,-84084.0,134402.0,271.0,0.0,0.0,0.0,-8.336,1016.565,-83.65,0.832,-0.37
-3370.0,-84083.0,134404.0,271.0,0.0,0.0,0.0,-8.325,1016.521,-83.82,0.983,-0.3
-3369.0,-84083.0,134406.0,271.0,0.0,0.0,0.0,-8.262,1018.838,-83.82,0.891,-0.29
-3369.0,-84082.0,134408.0,268.0,0.0,0.0,0.0,-10.596,1018.789,-83.87,0.96,-0.33
-3369.0,-84081.0,134409.0,268.0,0.0,0.0,0.0,-12.855,1015.964,-83.84,0.886,-0.33
-3369.0,-84081.0,134411.0,268.0,0.0,0.0,0.0,-12.319,1016.378,-81.46,0.874,-0.31
-3369.0,-84082.0,134413.0,268.0,0.0,0.0,0.0,-9.695,1019.32,-79.13,0.778,-0.32
-3369.0,-84083.0,134415.0,268.0,0.0,0.0,0.0,-9.904,1019.093,-79.71,0.822,-0.32
-3368.0,-84084.0,134416.0,268.0,0.0,0.0,0.0,-10.423,1016.291,-79.98,0.743,-0.32
-3368.0,-84084.0,134418.0,268.0,0.0,0.0,0.0,-7.865,1016.506,-79.76,0.833,-0.32
-3367.0,-84084.0,134420.0,268.0,0.0,0.0,0.0,-7.905,1016.869,-82.21,0.834,-0.32
-3367.0,-84085.0,134422.0,267.0,0.0,0.0,0.0,-8.464,1016.586,-82.15,0.793,-0.32
-3366.0,-84085.0,134424.0,267.0,0.0,0.0,0.0,-8.365,1014.341,-79.19,0.804,-0.32
-3366.0,-84086.0,134425.0,267.0,0.0,0.0,0.0,-8.432,1014.333,-79.46,0.809,-0.32
-3365.0,-84087.0,134427.0,267.0,0.0,0.0,0.0,-8.362,1017.206,-80.0,0.802,-0.32
-3365.0,-84087.0,134429.0,267.0,0.0,0.0,0.0,-10.774,1016.956,-79.83,0.811,-0.32
-3365.0,-84088.0,134431.0,267.0,0.0,0.0,0.0,-13.075,1016.533,-79.91,0.664,-0.32
-3365.0,-84090.0,134433.0,267.0,0.0,0.0,0.0,-12.477,1016.774,-79.88,0.708,-0.32
-3366.0,-84091.0,134434.0,267.0,0.0,0.0,0.0,-14.64,1014.497,-77.51,0.792,-0.32
-3367.0,-84092.0,134436.0,268.0,0.0,0.0,0.0,-17.196,1014.69,-75.21,0.681,-0.32
-3367.0,-84093.0,134437.0,268.0,0.0,0.0,0.0,-16.45,1017.404,-78.23,0.946,-0.18
-3368.0,-84093.0,134439.0,268.0,0.0,0.0,0.0,-16.071,1017.029,-80.87,0.707,-0.23
-3369.0,-84094.0,134440.0,268.0,0.0,0.0,0.0,-16.259,1016.591,-80.1,0.85,-0.16
-3370.0,-84093.0,134441.0,268.0,0.0,0.0,0.0,-16.277,1014.476,-79.79,0.97,-0.25
-3370.0,-84094.0,134443.0,268.0,0.0,0.0,0.0,-13.956,1012.143,-79.86,0.718,-0.39
-3370.0,-84095.0,134445.0,268.0,0.0,0.0,0.0,-11.635,1015.118,-79.85,0.876,-0.3
-3370.0,-84096.0,134447.0,268.0,0.0,0.0,0.0,-12.239,1017.73,-79.91,0.736,-0.37
-3370.0,-84096.0,134449.0,270.0,0.0,0.0,0.0,-10.149,1017.013,-79.84,0.786,-0.3
-3369.0,-84095.0,134450.0,270.0,0.0,0.0,0.0,-7.524,1016.647,-82.2,0.996,-0.29
-3369.0,-84094.0,134454.0,270.0,0.0,0.0,0.0,-12.966,1016.712,-84.04,0.949,-0.33
-3369.0,-84094.0,134456.0,270.0,0.0,0.0,0.0,-12.207,1016.695,-83.72,0.887,-0.31
-3369.0,-84093.0,134457.0,270.0,0.0,0.0,0.0,-11.905,1019.024,-83.93,0.867,-0.32
-3369.0,-84093.0,134459.0,270.0,0.0,0.0,0.0,-12.079,1019.011,-83.89,0.916,-0.32
-3369.0,-84093.0,134461.0,270.0,0.0,0.0,0.0,-12.097,1016.149,-83.84,0.772,-0.32
-3369.0,-84093.0,134463.0,270.0,0.0,0.0,0.0,-9.73,1018.748,-83.83,0.803,-0.32
-3368.0,-84093.0,134464.0,270.0,0.0,0.0,0.0,-7.423,1019.126,-83.81,0.745,-0.32
-3368.0,-84093.0,134465.0,270.0,0.0,0.0,0.0,-8.069,1016.007,-83.76,0.824,-0.18
-3367.0,-84092.0,134467.0,270.0,0.0,0.0,0.0,-8.384,1016.283,-83.77,0.976,-0.23
-3366.0,-84092.0,134468.0,270.0,0.0,0.0,0.0,-8.307,1016.751,-81.39,0.89,-0.31
-3366.0,-84092.0,134470.0,270.0,0.0,0.0,0.0,-8.455,1016.626,-79.05,0.955,-0.34
-3366.0,-84093.0,134473.0,270.0,0.0,0.0,0.0,-8.446,1016.65,-79.64,0.734,-0.55
-3365.0,-84094.0,134475.0,270.0,0.0,0.0,0.0,-8.457,1016.655,-79.94,0.774,-0.38
-3365.0,-84095.0,134477.0,271.0,0.0,0.0,0.0,-8.418,1016.756,-79.78,0.614,-0.3
-3364.0,-84096.0,134479.0,271.0,0.0,0.0,0.0,-8.354,1016.764,-79.82,0.741,-0.31
-3363.0,-84096.0,134480.0,271.0,0.0,0.0,0.0,-10.661,1016.777,-79.85,0.814,-0.24
-3363.0,-84097.0,134482.0,271.0,0.0,0.0,0.0,-12.932,1016.757,-79.92,0.811,-0.36
-3363.0,-84097.0,134484.0,271.0,0.0,0.0,0.0,-12.346,1016.689,-79.89,1.026,-0.36
-3363.0,-84097.0,134486.0,271.0,0.0,0.0,0.0,-12.076,1016.653,-79.89,0.861,-0.3
-3363.0,-84097.0,134488.0,271.0,0.0,0.0,0.0,-12.293,1016.668,-79.89,0.924,-0.31
-3364.0,-84097.0,134489.0,271.0,0.0,0.0,0.0,-14.67,1016.751,-79.94,0.895,-0.32
-3365.0,-84097.0,134491.0,271.0,0.0,0.0,0.0,-17.034,1016.86,-79.98,0.876,-0.31
-3365.0,-84097.0,134493.0,271.0,0.0,0.0,0.0,-14.089,1014.57,-79.88,0.912,-0.33
-3365.0,-84097.0,134495.0,271.0,0.0,0.0,0.0,-11.498,1012.308,-79.78,0.912,-0.32
-3365.0,-84097.0,134497.0,271.0,0.0,0.0,0.0,-12.241,1012.914,-79.81,0.892,-0.31
-3364.0,-84098.0,134498.0,271.0,0.0,0.0,0.0,-12.469,1015.55,-79.87,0.756,-0.32
-3364.0,-84097.0,134500.0,271.0,0.0,0.0,0.0,-12.205,1017.55,-82.29,0.95,-0.32
-3364.0,-84097.0,134502.0,271.0,0.0,0.0,0.0,-12.218,1016.961,-82.23,0.834,-0.32
-3364.0,-84097.0,134504.0,271.0,0.0,0.0,0.0,-12.308,1016.693,-79.3,0.985,-0.32
-3365.0,-84097.0,134506.0,271.0,0.0,0.0,0.0,-12.304,1016.811,-79.59,1.051,-0.32
-3365.0,-84097.0,134507.0,271.0,0.0,0.0,0.0,-12.267,1016.708,-80.06,0.806,-0.32
-3365.0,-84097.0,134509.0,271.0,0.0,0.0,0.0,-12.282,1016.734,-79.85,0.968,-0.32
-3365.0,-84097.0,134511.0,271.0,0.0,0.0,0.0,-12.286,1016.752,-79.9,0.825,-0.32
