theta,phi,psi,altitude,vx,vy,vz,accelx,accely,accelz,yaw1,yaw2
89380.0,-144425.0,125911.0,398.0,0.0,0.0,0.0,978.817,-15.934,10.48,0.581,-0.04
89380.0,-144402.0,125931.0,398.0,0.0,0.0,0.0,975.943,-15.747,10.74,0.581,-0.06
89380.0,-144341.0,125989.0,398.0,0.0,0.0,0.0,973.782,-15.771,10.52,0.436,-0.15
89381.0,-144273.0,126055.0,398.0,0.0,0.0,0.0,974.242,-15.764,10.58,0.341,-0.24
89381.0,-144260.0,126068.0,398.0,0.0,0.0,0.0,974.515,-15.801,10.58,0.327,-0.16
89382.0,-144204.0,126122.0,398.0,0.0,0.0,0.0,974.293,-15.818,10.59,0.346,-0.25
89382.0,-144214.0,126109.0,398.0,0.0,0.0,0.0,976.746,-18.252,10.67,0.58,-0.16
89383.0,-144239.0,126081.0,398.0,0.0,0.0,0.0,976.743,-20.622,10.72,0.64,-0.16
89384.0,-144262.0,126054.0,398.0,0.0,0.0,0.0,976.235,-19.998,13.09,0.617,-0.21
89384.0,-144316.0,125997.0,398.0,0.0,0.0,0.0,978.833,-19.627,15.46,0.466,-0.19
89384.0,-144368.0,125943.0,397.0,0.0,0.0,0.0,978.795,-19.737,14.88,0.431,-0.18
89385.0,-144410.0,125899.0,397.0,0.0,0.0,0.0,978.315,-19.586,14.56,0.405,-0.19
89385.0,-144455.0,125852.0,397.0,0.0,0.0,0.0,978.527,-19.491,14.73,0.531,-0.18
89385.0,-144517.0,125787.0,397.0,0.0,0.0,0.0,978.357,-19.335,17.08,0.661,-0.19
89385.0,-144597.0,125705.0,397.0,0.0,0.0,0.0,978.289,-19.26,19.42,0.561,-0.19
89384.0,-144674.0,125625.0,397.0,0.0,0.0,0.0,978.239,-19.296,18.82,0.632,-0.19
89384.0,-144728.0,125568.0,397.0,0.0,0.0,0.0,978.311,-19.403,16.13,0.409,-0.19
89384.0,-144764.0,125529.0,397.0,0.0,0.0,0.0,978.364,-19.488,13.96,0.454,-0.19
89385.0,-144806.0,125486.0,397.0,0.0,0.0,0.0,978.326,-19.471,14.51,0.442,-0.19
89385.0,-144849.0,125440.0,397.0,0.0,0.0,0.0,978.317,-19.483,14.83,0.513,-0.19
89385.0,-144861.0,125424.0,397.0,0.0,0.0,0.0,978.34,-17.192,14.59,0.65,-0.19
89384.0,-144846.0,125436.0,397.0,0.0,0.0,0.0,978.358,-14.95,14.6,0.567,-0.19
89385.0,-144820.0,125460.0,397.0,0.0,0.0,0.0,978.444,-15.65,12.21,0.63,-0.19
89385.0,-144797.0,125480.0,397.0,0.0,0.0,0.0,978.449,-15.945,12.29,0.557,-0.19
89385.0,-144797.0,125478.0,397.0,0.0,0.0,0.0,978.36,-15.635,15.2,0.551,-0.19
89385.0,-144793.0,125478.0,397.0,0.0,0.0,0.0,978.373,-15.636,14.92,0.596,-0.19
89385.0,-144785.0,125484.0,396.0,0.0,0.0,0.0,978.39,-15.596,14.45,0.589,-0.19
89385.0,-144779.0,125487.0,396.0,0.0,0.0,0.0,978.382,-15.578,14.66,0.576,-0.19
89384.0,-144771.0,125491.0,396.0,0.0,0.0,0.0,978.381,-15.558,14.6,0.583,-0.19
89384.0,-144765.0,125495.0,396.0,0.0,0.0,0.0,978.378,-15.569,14.63,0.577,-0.19
89384.0,-144758.0,125499.0,396.0,0.0,0.0,0.0,978.376,-15.594,14.6,0.579,-0.19
89384.0,-144753.0,125501.0,396.0,0.0,0.0,0.0,980.748,-15.639,14.66,0.584,-0.19
89384.0,-144749.0,125503.0,396.0,0.0,0.0,0.0,983.068,-15.689,14.71,0.435,-0.19
89383.0,-144744.0,125503.0,396.0,0.0,0.0,0.0,982.482,-15.708,14.69,0.484,-0.19
89384.0,-144772.0,125476.0,396.0,0.0,0.0,0.0,982.163,-18.076,14.73,0.277,-0.19
89383.0,-144847.0,125399.0,396.0,0.0,0.0,0.0,982.24,-20.317,17.17,0.265,-0.19
89383.0,-144915.0,125330.0,396.0,0.0,0.0,0.0,982.202,-19.791,17.1,0.258,-0.19
89383.0,-144976.0,125268.0,396.0,0.0,0.0,0.0,982.232,-19.578,16.56,0.235,-0.19
89383.0,-145060.0,125182.0,396.0,0.0,0.0,0.0,979.753,-19.706,19.14,0.329,-0.19
89383.0,-145142.0,125098.0,396.0,0.0,0.0,0.0,977.451,-19.716,18.98,0.447,-0.19
89382.0,-145189.0,125048.0,396.0,0.0,0.0,0.0,978.051,-19.786,18.47,0.501,-0.19
89382.0,-145249.0,124986.0,396.0,0.0,0.0,0.0,980.719,-19.764,18.74,0.535,-0.19
89381.0,-145292.0,124938.0,395.0,0.0,0.0,0.0,982.877,-19.713,18.71,0.663,-0.19
89381.0,-145324.0,124906.0,395.0,0.0,0.0,0.0,982.346,-17.215,18.7,0.52,-0.19
89381.0,-145355.0,124871.0,395.0,0.0,0.0,0.0,982.045,-14.743,18.61,0.628,-0.19
89380.0,-145373.0,124851.0,395.0,0.0,0.0,0.0,982.228,-15.159,18.64,0.576,-0.19
89378.0,-145376.0,124843.0,395.0,0.0,0.0,0.0,982.168,-15.331,18.65,0.552,-0.19
89378.0,-145401.0,124816.0,395.0,0.0,0.0,0.0,982.168,-17.446,18.69,0.594,-0.19
89378.0,-145360.0,124855.0,395.0,0.0,0.0,0.0,982.233,-17.527,16.3,0.587,-0.19
89377.0,-145322.0,124889.0,395.0,0.0,0.0,0.0,982.258,-14.705,16.3,0.573,-0.19
89376.0,-145331.0,124878.0,395.0,0.0,0.0,0.0,982.158,-14.99,19.23,0.585,-0.19
89376.0,-145368.0,124838.0,395.0,0.0,0.0,0.0,982.148,-17.906,19.0,0.58,-0.19
89376.0,-145456.0,124746.0,395.0,0.0,0.0,0.0,982.234,-20.193,16.18,0.578,-0.19
89376.0,-145506.0,124695.0,395.0,0.0,0.0,0.0,982.227,-19.737,16.43,0.584,-0.19
89376.0,-145538.0,124660.0,395.0,0.0,0.0,0.0,979.852,-17.067,16.82,0.436,-0.19
89375.0,-145539.0,124656.0,395.0,0.0,0.0,0.0,979.925,-15.003,16.58,0.484,-0.19
89375.0,-145544.0,124650.0,395.0,0.0,0.0,0.0,982.827,-15.555,16.67,0.423,-0.19
89374.0,-145538.0,124651.0,395.0,0.0,0.0,0.0,982.623,-15.955,14.28,0.65,-0.19
89375.0,-145531.0,124655.0,395.0,0.0,0.0,0.0,979.775,-15.76,14.28,0.751,-0.19
89375.0,-145524.0,124659.0,395.0,0.0,0.0,0.0,977.648,-15.773,14.79,0.723,-0.19
89375.0,-145487.0,124693.0,395.0,0.0,0.0,0.0,978.202,-13.398,14.5,0.709,-0.19
89373.0,-145433.0,124743.0,395.0,0.0,0.0,0.0,978.611,-13.478,12.2,0.483,-0.19
89375.0,-145413.0,124761.0,395.0,0.0,0.0,0.0,978.394,-16.237,12.27,0.564,-0.19
89374.0,-145393.0,124777.0,395.0,0.0,0.0,0.0,978.437,-15.861,12.83,0.544,-0.19
89375.0,-145346.0,124822.0,395.0,0.0,0.0,0.0,978.518,-15.463,10.19,0.612,-0.19
89376.0,-145303.0,124862.0,395.0,0.0,0.0,0.0,978.524,-15.696,10.3,0.609,-0.19
89376.0,-145284.0,124879.0,397.0,0.0,0.0,0.0,978.419,-15.605,13.22,0.567,-0.19
89375.0,-145282.0,124877.0,397.0,0.0,0.0,0.0,978.35,-15.631,15.33,0.568,-0.19
89376.0,-145307.0,124850.0,397.0,0.0,0.0,0.0,980.732,-18.047,14.9,0.584,-0.19
89376.0,-145359.0,124795.0,397.0,0.0,0.0,0.0,983.047,-20.432,14.64,0.582,-0.19
89376.0,-145405.0,124746.0,397.0,0.0,0.0,0.0,982.459,-19.861,14.83,0.584,-0.19
89377.0,-145409.0,124739.0,397.0,0.0,0.0,0.0,979.784,-19.528,14.71,0.581,-0.33
89378.0,-145428.0,124717.0,397.0,0.0,0.0,0.0,977.632,-19.663,14.68,0.577,-0.28
89378.0,-145400.0,124742.0,397.0,0.0,0.0,0.0,978.198,-17.253,14.63,0.58,-0.34
89378.0,-145365.0,124774.0,397.0,0.0,0.0,0.0,978.549,-14.946,14.6,0.437,-0.26
89378.0,-145375.0,124762.0,397.0,0.0,0.0,0.0,978.396,-15.484,14.61,0.486,-0.11
89378.0,-145348.0,124788.0,397.0,0.0,0.0,0.0,980.94,-15.903,12.27,0.277,-0.2
89378.0,-145319.0,124815.0,397.0,0.0,0.0,0.0,983.34,-15.858,9.98,0.265,-0.13
89379.0,-145276.0,124857.0,397.0,0.0,0.0,0.0,980.352,-15.896,10.51,0.402,-0.21
89380.0,-145232.0,124899.0,397.0,0.0,0.0,0.0,977.652,-15.929,10.77,0.33,-0.22
89380.0,-145220.0,124908.0,397.0,0.0,0.0,0.0,980.643,-15.976,13.05,0.633,-0.17
89379.0,-145225.0,124899.0,397.0,0.0,0.0,0.0,980.719,-15.935,15.43,0.618,-0.18
89379.0,-145251.0,124870.0,398.0,0.0,0.0,0.0,977.627,-18.279,14.82,0.584,-0.19
89379.0,-145277.0,124843.0,398.0,0.0,0.0,0.0,980.31,-18.192,14.58,0.483,-0.18
89380.0,-145331.0,124787.0,398.0,0.0,0.0,0.0,980.744,-17.529,14.73,0.441,-0.05
89378.0,-145400.0,124714.0,398.0,0.0,0.0,0.0,977.649,-19.927,14.68,0.4,-0.1
89379.0,-145456.0,124656.0,398.0,0.0,0.0,0.0,978.0,-17.365,14.66,0.533,-0.03
89378.0,-145453.0,124656.0,398.0,0.0,0.0,0.0,978.475,-14.523,14.59,0.657,-0.11
89378.0,-145423.0,124684.0,398.0,0.0,0.0,0.0,978.279,-15.338,14.61,0.559,-0.26
89378.0,-145419.0,124685.0,398.0,0.0,0.0,0.0,978.293,-15.615,14.62,0.636,-0.17
89377.0,-145426.0,124674.0,398.0,0.0,0.0,0.0,978.247,-17.878,14.66,0.554,-0.24
89378.0,-145481.0,124617.0,398.0,0.0,0.0,0.0,978.297,-20.204,14.71,0.548,-0.16
89379.0,-145532.0,124563.0,398.0,0.0,0.0,0.0,978.326,-19.64,14.69,0.601,-0.15
89379.0,-145567.0,124525.0,398.0,0.0,0.0,0.0,978.386,-19.368,14.69,0.589,-0.2
89379.0,-145605.0,124484.0,398.0,0.0,0.0,0.0,978.44,-19.521,14.69,0.574,-0.19
89380.0,-145646.0,124440.0,398.0,0.0,0.0,0.0,978.46,-19.498,14.69,0.583,-0.18
89380.0,-145686.0,124397.0,398.0,0.0,0.0,0.0,978.464,-19.523,14.69,0.577,-0.19
89380.0,-145727.0,124353.0,398.0,0.0,0.0,0.0,978.451,-19.513,14.69,0.579,-0.18
89380.0,-145769.0,124309.0,397.0,0.0,0.0,0.0,978.426,-19.54,14.69,0.585,-0.18
89380.0,-145761.0,124315.0,397.0,0.0,0.0,0.0,978.49,-17.289,12.25,0.435,-0.19
89381.0,-145735.0,124338.0,397.0,0.0,0.0,0.0,978.539,-17.432,9.92,0.484,-0.18
89381.0,-145751.0,124319.0,397.0,0.0,0.0,0.0,978.481,-20.299,10.57,0.423,-0.18
89382.0,-145736.0,124332.0,397.0,0.0,0.0,0.0,978.472,-17.69,10.82,0.505,-0.18
89383.0,-145715.0,124350.0,397.0,0.0,0.0,0.0,978.473,-17.318,10.64,0.656,-0.18
89383.0,-145733.0,124329.0,397.0,0.0,0.0,0.0,978.455,-20.433,10.75,0.565,-0.18
89384.0,-145747.0,124311.0,397.0,0.0,0.0,0.0,978.462,-20.114,10.73,0.633,-0.18
89385.0,-145776.0,124280.0,397.0,0.0,0.0,0.0,978.393,-19.56,13.13,0.559,-0.18
89385.0,-145824.0,124230.0,397.0,0.0,0.0,0.0,978.322,-19.596,15.46,0.548,-0.18
89385.0,-145866.0,124184.0,397.0,0.0,0.0,0.0,980.723,-19.535,14.91,0.597,-0.18
89385.0,-145906.0,124141.0,397.0,0.0,0.0,0.0,983.057,-19.538,14.65,0.59,-0.18
89385.0,-145946.0,124098.0,397.0,0.0,0.0,0.0,980.094,-19.432,14.76,0.575,-0.18
89385.0,-145986.0,124056.0,397.0,0.0,0.0,0.0,979.844,-19.446,14.72,0.438,-0.18
89386.0,-146027.0,124012.0,397.0,0.0,0.0,0.0,982.917,-19.488,14.78,0.482,-0.18
89386.0,-146069.0,123969.0,397.0,0.0,0.0,0.0,982.591,-19.513,14.76,0.42,-0.18
89386.0,-146110.0,123925.0,398.0,0.0,0.0,0.0,979.75,-19.548,14.72,0.508,-0.18
89386.0,-146150.0,123881.0,398.0,0.0,0.0,0.0,977.622,-19.596,14.68,0.656,-0.18
89387.0,-146192.0,123837.0,398.0,0.0,0.0,0.0,978.167,-19.663,14.68,0.563,-0.18
89387.0,-146234.0,123792.0,398.0,0.0,0.0,0.0,978.497,-19.697,14.69,0.633,-0.18
89387.0,-146277.0,123747.0,398.0,0.0,0.0,0.0,980.666,-19.701,14.73,0.559,-0.18
89387.0,-146289.0,123732.0,398.0,0.0,0.0,0.0,983.065,-17.322,14.73,0.547,-0.18
89387.0,-146270.0,123748.0,398.0,0.0,0.0,0.0,980.108,-14.929,14.63,0.597,-0.18
89387.0,-146324.0,123691.0,398.0,0.0,0.0,0.0,979.851,-17.786,14.68,0.59,-0.04
89387.0,-146379.0,123633.0,397.0,0.0,0.0,0.0,980.607,-20.432,12.36,0.575,-0.09
89387.0,-146441.0,123569.0,397.0,0.0,0.0,0.0,980.33,-19.667,12.39,0.583,-0.03
89387.0,-146502.0,123504.0,397.0,0.0,0.0,0.0,982.657,-19.332,15.36,0.577,-0.11
89387.0,-146562.0,123441.0,397.0,0.0,0.0,0.0,982.54,-19.52,15.08,0.579,-0.12
89385.0,-146694.0,123302.0,397.0,0.0,0.0,0.0,982.214,-19.561,14.81,0.581,-0.08
89385.0,-146759.0,123236.0,397.0,0.0,0.0,0.0,982.124,-19.575,14.75,0.579,-0.09
89386.0,-146789.0,123203.0,397.0,0.0,0.0,0.0,982.19,-19.611,14.78,0.581,-0.22
89386.0,-146799.0,123190.0,398.0,0.0,0.0,0.0,979.827,-17.248,14.66,0.435,-0.18
89385.0,-146783.0,123203.0,398.0,0.0,0.0,0.0,979.866,-14.869,17.02,0.486,-0.24
89384.0,-146851.0,123133.0,398.0,0.0,0.0,0.0,982.752,-15.4,19.42,0.422,-0.02
89383.0,-146919.0,123063.0,398.0,0.0,0.0,0.0,982.607,-18.168,16.48,0.505,-0.06
89382.0,-146935.0,123043.0,398.0,0.0,0.0,0.0,982.27,-18.069,13.83,0.656,-0.04
89381.0,-146913.0,123063.0,398.0,0.0,0.0,0.0,982.467,-17.59,14.59,0.564,-0.12
89382.0,-146857.0,123115.0,398.0,0.0,0.0,0.0,982.368,-17.802,14.85,0.633,-0.25
89381.0,-146796.0,123174.0,398.0,0.0,0.0,0.0,982.358,-15.396,14.65,0.559,-0.17
89381.0,-146770.0,123197.0,398.0,0.0,0.0,0.0,979.901,-15.37,14.63,0.547,-0.23
89381.0,-146780.0,123185.0,398.0,0.0,0.0,0.0,979.952,-15.827,14.64,0.597,-0.16
89381.0,-146784.0,123179.0,398.0,0.0,0.0,0.0,980.501,-15.543,14.66,0.445,-0.15
89381.0,-146775.0,123185.0,398.0,0.0,0.0,0.0,977.928,-15.572,14.6,0.48,-0.2
89381.0,-146750.0,123209.0,398.0,0.0,0.0,0.0,978.081,-15.534,14.61,0.279,-0.19
89381.0,-146736.0,123220.0,398.0,0.0,0.0,0.0,978.62,-15.61,14.62,0.407,-0.18
89381.0,-146700.0,123254.0,398.0,0.0,0.0,0.0,978.406,-15.672,14.61,0.496,-0.18
89380.0,-146673.0,123279.0,398.0,0.0,0.0,0.0,978.474,-15.759,14.61,0.492,-0.18
89380.0,-146629.0,123319.0,398.0,0.0,0.0,0.0,978.417,-15.849,14.61,0.709,-0.18
89380.0,-146634.0,123311.0,398.0,0.0,0.0,0.0,978.418,-18.229,14.66,0.541,-0.19
89380.0,-146671.0,123272.0,398.0,0.0,0.0,0.0,978.384,-18.15,14.66,0.455,-0.18
89380.0,-146717.0,123224.0,398.0,0.0,0.0,0.0,978.363,-17.543,14.65,0.48,-0.04
89380.0,-146798.0,123141.0,398.0,0.0,0.0,0.0,978.343,-20.009,14.7,0.398,-0.09
89379.0,-146910.0,123026.0,398.0,0.0,0.0,0.0,980.695,-19.839,14.74,0.516,0.1
89378.0,-146979.0,122953.0,398.0,0.0,0.0,0.0,982.992,-19.314,14.78,0.668,-0.02
89378.0,-147040.0,122889.0,398.0,0.0,0.0,0.0,979.987,-19.513,14.72,0.556,-0.1
89378.0,-147101.0,122826.0,398.0,0.0,0.0,0.0,977.308,-19.441,14.67,0.633,-0.09
89378.0,-147106.0,122819.0,398.0,0.0,0.0,0.0,978.017,-19.504,14.69,0.559,-0.31
89378.0,-147122.0,122799.0,398.0,0.0,0.0,0.0,978.285,-17.124,14.65,0.545,-0.15
89378.0,-147095.0,122824.0,398.0,0.0,0.0,0.0,978.184,-14.832,14.6,0.454,-0.2
89378.0,-147050.0,122866.0,398.0,0.0,0.0,0.0,978.297,-15.41,14.61,0.496,-0.18
89376.0,-147026.0,122887.0,398.0,0.0,0.0,0.0,978.41,-15.715,14.62,0.415,-0.16
89377.0,-146978.0,122934.0,398.0,0.0,0.0,0.0,978.522,-15.589,14.61,0.507,-0.19
89377.0,-146947.0,122962.0,398.0,0.0,0.0,0.0,978.566,-15.686,14.61,0.653,-0.19
89377.0,-146925.0,122981.0,397.0,0.0,0.0,0.0,980.966,-15.753,14.66,0.417,-0.17
89376.0,-146893.0,123011.0,397.0,0.0,0.0,0.0,983.271,-15.827,14.7,0.542,-0.18
89376.0,-146881.0,123021.0,397.0,0.0,0.0,0.0,982.559,-15.723,17.08,0.4,-0.18
89375.0,-146889.0,123011.0,397.0,0.0,0.0,0.0,982.124,-15.618,19.41,0.325,-0.18
89374.0,-146920.0,122978.0,397.0,0.0,0.0,0.0,982.257,-15.623,18.82,0.578,-0.18
89374.0,-146941.0,122955.0,397.0,0.0,0.0,0.0,982.177,-15.622,18.52,0.27,-0.18
89372.0,-147005.0,122887.0,397.0,0.0,0.0,0.0,982.137,-17.968,18.73,0.457,-0.18
89372.0,-147050.0,122840.0,397.0,0.0,0.0,0.0,982.104,-17.929,18.69,0.478,-0.18
89371.0,-147088.0,122801.0,396.0,0.0,0.0,0.0,984.494,-17.438,18.73,0.452,-0.18
89371.0,-147166.0,122718.0,396.0,0.0,0.0,0.0,986.804,-20.034,18.81,0.723,-0.18
89370.0,-147247.0,122636.0,396.0,0.0,0.0,0.0,983.867,-17.534,18.72,0.556,-0.04
89370.0,-147277.0,122602.0,396.0,0.0,0.0,0.0,983.648,-14.682,18.65,0.595,-0.09
89368.0,-147333.0,122544.0,396.0,0.0,0.0,0.0,986.721,-15.434,18.72,0.576,-0.03
89367.0,-147368.0,122505.0,396.0,0.0,0.0,0.0,984.006,-15.556,18.68,0.554,-0.11
89368.0,-147348.0,122523.0,396.0,0.0,0.0,0.0,981.271,-15.425,16.24,0.589,-0.25
89368.0,-147333.0,122536.0,396.0,0.0,0.0,0.0,982.094,-15.493,13.91,0.596,-0.17
89366.0,-147323.0,122541.0,396.0,0.0,0.0,0.0,982.245,-15.396,16.9,0.573,-0.23
89366.0,-147351.0,122511.0,396.0,0.0,0.0,0.0,982.033,-15.357,19.54,0.579,-0.16
89365.0,-147376.0,122483.0,396.0,0.0,0.0,0.0,979.742,-15.391,18.74,0.581,-0.15
89365.0,-147387.0,122469.0,396.0,0.0,0.0,0.0,977.503,-15.443,18.43,0.579,-0.2
89365.0,-147385.0,122469.0,396.0,0.0,0.0,0.0,978.232,-15.585,16.21,0.583,-0.19
89364.0,-147368.0,122482.0,396.0,0.0,0.0,0.0,978.624,-15.709,13.85,0.581,-0.18
89365.0,-147356.0,122493.0,396.0,0.0,0.0,0.0,978.452,-15.712,14.44,0.434,-0.18
89365.0,-147345.0,122501.0,396.0,0.0,0.0,0.0,976.103,-15.692,14.68,0.486,-0.18
89365.0,-147334.0,122510.0,395.0,0.0,0.0,0.0,973.751,-15.682,14.49,0.422,-0.18
89364.0,-147321.0,122520.0,395.0,0.0,0.0,0.0,974.326,-15.701,14.54,0.505,-0.19
89364.0,-147308.0,122529.0,395.0,0.0,0.0,0.0,974.589,-15.728,14.53,0.801,-0.18
89364.0,-147279.0,122555.0,395.0,0.0,0.0,0.0,976.851,-15.856,12.2,0.659,-0.18
89364.0,-147284.0,122545.0,395.0,0.0,0.0,0.0,979.202,-15.869,12.29,0.791,-0.04
89363.0,-147329.0,122498.0,395.0,0.0,0.0,0.0,978.484,-18.047,15.25,0.49,-0.09
89363.0,-147386.0,122440.0,395.0,0.0,0.0,0.0,978.197,-17.907,14.97,0.377,-0.03
89363.0,-147411.0,122412.0,395.0,0.0,0.0,0.0,978.352,-17.306,14.48,0.454,-0.11
89363.0,-147405.0,122417.0,395.0,0.0,0.0,0.0,978.272,-17.479,14.7,0.462,-0.25
89363.0,-147389.0,122429.0,395.0,0.0,0.0,0.0,978.275,-15.109,14.6,0.672,-0.17
89363.0,-147423.0,122393.0,395.0,0.0,0.0,0.0,978.232,-17.61,14.67,0.455,-0.09
89362.0,-147503.0,122310.0,395.0,0.0,0.0,0.0,978.271,-18.177,14.65,0.519,0.06
89360.0,-147552.0,122259.0,395.0,0.0,0.0,0.0,978.331,-15.139,14.6,0.389,0.09
89360.0,-147588.0,122220.0,395.0,0.0,0.0,0.0,978.357,-15.535,14.61,0.481,0.02
89359.0,-147577.0,122228.0,395.0,0.0,0.0,0.0,978.352,-15.967,14.61,0.67,-0.19
89359.0,-147523.0,122280.0,395.0,0.0,0.0,0.0,978.309,-15.781,14.61,0.576,-0.23
89359.0,-147483.0,122317.0,394.0,0.0,0.0,0.0,978.266,-15.796,14.61,0.63,-0.22
89358.0,-147465.0,122331.0,394.0,0.0,0.0,0.0,978.263,-15.707,14.61,0.412,-0.07
89357.0,-147472.0,122322.0,394.0,0.0,0.0,0.0,978.312,-15.673,14.61,0.449,-0.03
89357.0,-147550.0,122244.0,394.0,0.0,0.0,0.0,978.391,-15.588,14.61,0.438,0.12
89355.0,-147565.0,122224.0,394.0,0.0,0.0,0.0,978.456,-15.561,14.61,0.517,-0.04
89356.0,-147564.0,122223.0,394.0,0.0,0.0,0.0,978.552,-15.675,12.22,0.651,-0.1
89355.0,-147534.0,122249.0,394.0,0.0,0.0,0.0,978.594,-15.802,9.89,0.565,-0.09
89357.0,-147473.0,122309.0,394.0,0.0,0.0,0.0,978.435,-15.737,12.87,0.485,-0.3
89356.0,-147482.0,122298.0,394.0,0.0,0.0,0.0,978.3,-15.658,15.51,0.462,-0.14
89357.0,-147498.0,122280.0,394.0,0.0,0.0,0.0,978.303,-18.025,14.8,0.248,-0.2
89356.0,-147542.0,122233.0,394.0,0.0,0.0,0.0,978.335,-20.32,14.58,0.426,-0.18
89357.0,-147588.0,122186.0,394.0,0.0,0.0,0.0,980.77,-19.773,14.77,0.505,-0.16
89356.0,-147620.0,122150.0,394.0,0.0,0.0,0.0,983.157,-19.536,14.78,0.483,-0.19
89357.0,-147689.0,122079.0,394.0,0.0,0.0,0.0,982.614,-19.744,14.77,0.711,-0.05
89357.0,-147751.0,122013.0,394.0,0.0,0.0,0.0,984.697,-19.74,14.8,0.539,-0.08
89356.0,-147880.0,121878.0,394.0,0.0,0.0,0.0,986.481,-19.653,14.84,0.579,-0.11
89357.0,-147901.0,121856.0,394.0,0.0,0.0,0.0,986.11,-19.572,14.83,0.412,-0.25
89357.0,-147957.0,121798.0,394.0,0.0,0.0,0.0,986.103,-19.403,17.23,0.495,-0.17
89357.0,-147996.0,121756.0,394.0,0.0,0.0,0.0,986.026,-19.359,17.17,0.434,-0.23
89357.0,-148031.0,121718.0,394.0,0.0,0.0,0.0,983.752,-19.457,14.2,0.496,-0.16
89357.0,-148088.0,121660.0,394.0,0.0,0.0,0.0,981.36,-19.392,16.83,0.656,-0.15
89356.0,-148153.0,121590.0,394.0,0.0,0.0,0.0,981.933,-19.372,19.66,0.565,-0.2
89356.0,-148217.0,121525.0,394.0,0.0,0.0,0.0,982.32,-19.469,18.86,0.486,-0.19
89355.0,-148268.0,121471.0,394.0,0.0,0.0,0.0,982.29,-17.247,16.17,0.466,-0.04
89355.0,-148309.0,121429.0,394.0,0.0,0.0,0.0,982.347,-17.291,16.36,0.389,-0.09
89354.0,-148404.0,121332.0,394.0,0.0,0.0,0.0,982.292,-20.129,16.94,0.374,-0.02
89354.0,-148457.0,121275.0,394.0,0.0,0.0,0.0,982.357,-19.945,14.31,0.571,-0.1
89354.0,-148470.0,121259.0,394.0,0.0,0.0,0.0,982.281,-19.489,14.4,0.401,-0.26
89355.0,-148511.0,121216.0,394.0,0.0,0.0,0.0,982.201,-19.703,14.94,0.559,-0.16
89355.0,-148505.0,121219.0,394.0,0.0,0.0,0.0,982.187,-17.326,14.67,0.631,-0.23
89355.0,-148488.0,121233.0,394.0,0.0,0.0,0.0,979.823,-15.029,14.65,0.529,-0.16
89355.0,-148507.0,121211.0,394.0,0.0,0.0,0.0,977.533,-17.866,14.62,0.653,-0.15
89355.0,-148519.0,121197.0,394.0,0.0,0.0,0.0,978.178,-18.077,14.67,0.569,-0.2
89355.0,-148476.0,121237.0,394.0,0.0,0.0,0.0,978.638,-15.063,12.21,0.541,-0.19
89356.0,-148440.0,121270.0,394.0,0.0,0.0,0.0,978.504,-15.313,12.27,0.599,-0.17
89355.0,-148429.0,121277.0,394.0,0.0,0.0,0.0,980.838,-15.656,15.25,0.587,-0.18
89355.0,-148416.0,121288.0,394.0,0.0,0.0,0.0,983.155,-15.49,15.01,0.573,-0.18
89355.0,-148400.0,121301.0,394.0,0.0,0.0,0.0,982.584,-15.562,14.52,0.587,-0.18
89355.0,-148384.0,121314.0,394.0,0.0,0.0,0.0,982.231,-15.566,14.73,0.577,-0.18
89355.0,-148369.0,121326.0,393.0,0.0,0.0,0.0,982.375,-15.649,14.68,0.577,-0.18
89355.0,-148326.0,121366.0,393.0,0.0,0.0,0.0,982.323,-13.324,14.66,0.585,-0.18
89353.0,-148255.0,121433.0,393.0,0.0,0.0,0.0,982.325,-11.067,14.58,0.58,-0.18
89354.0,-148192.0,121495.0,393.0,0.0,0.0,0.0,979.921,-11.653,14.56,0.579,-0.18
89354.0,-148132.0,121552.0,393.0,0.0,0.0,0.0,977.61,-11.938,14.53,0.581,-0.18
89354.0,-148099.0,121582.0,393.0,0.0,0.0,0.0,980.559,-14.146,14.62,0.58,-0.18
89354.0,-148078.0,121600.0,393.0,0.0,0.0,0.0,980.878,-16.565,12.29,0.58,-0.18
89354.0,-148049.0,121625.0,393.0,0.0,0.0,0.0,977.816,-15.935,12.27,0.581,-0.18
89354.0,-148038.0,121634.0,364.0,0.0,0.0,0.0,978.052,-15.537,15.19,0.58,-0.18
89354.0,-148057.0,121612.0,364.0,0.0,0.0,0.0,980.889,-18.062,15.02,0.58,-0.18
89354.0,-148100.0,121566.0,364.0,0.0,0.0,0.0,983.021,-20.344,14.62,0.581,-0.18
89354.0,-148124.0,121539.0,364.0,0.0,0.0,0.0,982.394,-19.676,17.2,0.581,-0.18
89353.0,-148171.0,121489.0,364.0,0.0,0.0,0.0,981.989,-19.267,19.47,0.436,-0.18
89352.0,-148204.0,121455.0,364.0,0.0,0.0,0.0,982.21,-19.475,18.92,0.486,-0.18
89352.0,-148250.0,121406.0,364.0,0.0,0.0,0.0,982.154,-19.454,18.58,0.422,-0.18
89352.0,-148313.0,121341.0,364.0,0.0,0.0,0.0,982.235,-19.567,16.38,0.505,-0.18
89352.0,-148339.0,121311.0,365.0,0.0,0.0,0.0,982.302,-19.68,14.0,0.656,-0.18
89353.0,-148385.0,121263.0,365.0,0.0,0.0,0.0,982.29,-19.71,14.59,0.564,-0.18
89353.0,-148388.0,121257.0,365.0,0.0,0.0,0.0,982.292,-17.366,14.84,0.633,-0.18
89353.0,-148388.0,121254.0,365.0,0.0,0.0,0.0,982.294,-17.398,14.68,0.559,-0.18
89353.0,-148405.0,121234.0,365.0,0.0,0.0,0.0,982.293,-17.869,14.73,0.547,-0.18
89353.0,-148387.0,121249.0,365.0,0.0,0.0,0.0,982.308,-15.23,14.67,0.597,-0.18
89353.0,-148367.0,121266.0,365.0,0.0,0.0,0.0,979.932,-15.26,14.65,0.59,-0.18
89353.0,-148353.0,121277.0,365.0,0.0,0.0,0.0,977.61,-15.716,14.6,0.575,-0.18
89353.0,-148337.0,121291.0,372.0,0.0,0.0,0.0,980.572,-15.516,14.65,0.583,-0.18
89352.0,-148321.0,121302.0,372.0,0.0,0.0,0.0,983.197,-15.622,14.71,0.577,-0.18
89352.0,-148307.0,121314.0,372.0,0.0,0.0,0.0,982.443,-15.598,14.69,0.579,-0.18
89353.0,-148293.0,121326.0,372.0,0.0,0.0,0.0,979.807,-15.64,14.64,0.584,-0.18
89352.0,-148278.0,121337.0,372.0,0.0,0.0,0.0,980.02,-15.66,14.64,0.436,-0.18
89353.0,-148266.0,121349.0,372.0,0.0,0.0,0.0,982.9,-15.709,14.7,0.484,-0.18
89353.0,-148253.0,121359.0,372.0,0.0,0.0,0.0,982.614,-15.742,14.69,0.422,-0.18
89351.0,-148212.0,121397.0,372.0,0.0,0.0,0.0,982.139,-13.42,14.64,0.505,-0.18
89352.0,-148143.0,121464.0,394.0,0.0,0.0,0.0,982.383,-11.168,14.6,0.511,-0.18
89352.0,-148112.0,121493.0,394.0,0.0,0.0,0.0,982.306,-14.126,14.65,0.47,-0.18
89351.0,-148144.0,121458.0,394.0,0.0,0.0,0.0,982.316,-16.736,14.7,0.474,-0.04
89351.0,-148157.0,121443.0,394.0,0.0,0.0,0.0,982.29,-15.983,14.69,0.483,-0.09
89350.0,-148179.0,121418.0,394.0,0.0,0.0,0.0,982.298,-15.7,14.68,0.623,-0.03
89349.0,-148184.0,121410.0,394.0,0.0,0.0,0.0,979.899,-15.798,14.64,0.58,-0.11
89350.0,-148153.0,121438.0,394.0,0.0,0.0,0.0,977.536,-15.705,14.6,0.643,-0.25
89349.0,-148143.0,121446.0,394.0,0.0,0.0,0.0,978.091,-15.649,14.61,0.554,-0.16
89350.0,-148099.0,121487.0,394.0,0.0,0.0,0.0,978.461,-15.662,12.23,0.55,-0.23
89350.0,-148072.0,121511.0,394.0,0.0,0.0,0.0,978.312,-15.622,12.28,0.449,-0.16
89350.0,-148068.0,121512.0,394.0,0.0,0.0,0.0,978.314,-15.482,15.2,0.493,-0.15
89350.0,-148051.0,121527.0,394.0,0.0,0.0,0.0,978.379,-15.5,14.92,0.565,-0.19
89350.0,-148032.0,121543.0,394.0,0.0,0.0,0.0,978.468,-15.568,14.44,0.602,-0.19
89350.0,-148001.0,121570.0,394.0,0.0,0.0,0.0,978.557,-15.711,12.27,0.81,-0.17
89350.0,-147970.0,121597.0,394.0,0.0,0.0,0.0,978.568,-15.765,12.27,0.639,-0.18
89350.0,-147963.0,121602.0,394.0,0.0,0.0,0.0,980.837,-15.695,15.27,0.561,-0.18
89350.0,-147953.0,121609.0,394.0,0.0,0.0,0.0,983.14,-15.698,14.99,0.575,-0.18
89349.0,-147938.0,121620.0,394.0,0.0,0.0,0.0,982.541,-15.66,14.52,0.494,-0.18
89350.0,-147953.0,121603.0,394.0,0.0,0.0,0.0,982.186,-17.959,14.78,0.619,-0.18
89350.0,-147996.0,121557.0,394.0,0.0,0.0,0.0,982.318,-20.252,14.77,0.623,-0.18
89351.0,-148033.0,121518.0,394.0,0.0,0.0,0.0,982.26,-19.7,14.79,0.559,-0.18
89351.0,-148066.0,121481.0,394.0,0.0,0.0,0.0,982.266,-19.439,14.75,0.573,-0.18
89351.0,-148102.0,121443.0,394.0,0.0,0.0,0.0,982.246,-19.639,14.77,0.582,-0.18
89351.0,-148137.0,121405.0,394.0,0.0,0.0,0.0,982.266,-19.62,14.77,0.576,-0.18
89352.0,-148208.0,121328.0,394.0,0.0,0.0,0.0,982.275,-19.629,14.77,0.582,-0.18
89351.0,-148231.0,121302.0,394.0,0.0,0.0,0.0,982.219,-17.205,17.11,0.575,-0.18
89351.0,-148258.0,121272.0,394.0,0.0,0.0,0.0,982.238,-14.9,17.01,0.581,-0.04
89350.0,-148232.0,121296.0,394.0,0.0,0.0,0.0,982.345,-13.22,14.05,0.437,-0.09
89349.0,-148198.0,121328.0,394.0,0.0,0.0,0.0,982.338,-11.211,14.29,0.34,-0.02
89348.0,-148171.0,121353.0,394.0,0.0,0.0,0.0,982.216,-11.519,17.17,0.328,-0.1
89346.0,-148130.0,121392.0,394.0,0.0,0.0,0.0,982.105,-11.815,19.29,0.201,-0.25
89345.0,-148133.0,121388.0,394.0,0.0,0.0,0.0,982.072,-14.066,18.8,0.34,-0.16
89345.0,-148103.0,121416.0,394.0,0.0,0.0,0.0,982.148,-14.259,16.08,0.387,-0.23
89345.0,-148039.0,121478.0,394.0,0.0,0.0,0.0,982.256,-11.53,13.89,0.382,-0.16
89345.0,-148014.0,121500.0,394.0,0.0,0.0,0.0,982.276,-14.21,14.47,0.611,-0.15
89345.0,-147985.0,121526.0,394.0,0.0,0.0,0.0,982.329,-14.602,14.79,0.585,-0.19
89345.0,-147946.0,121562.0,394.0,0.0,0.0,0.0,982.395,-13.802,14.6,0.6,-0.19
89345.0,-147942.0,121563.0,394.0,0.0,0.0,0.0,982.41,-16.296,14.7,0.637,-0.17
89344.0,-147932.0,121569.0,394.0,0.0,0.0,0.0,982.42,-15.986,14.69,0.53,-0.18
89345.0,-147917.0,121583.0,393.0,0.0,0.0,0.0,982.411,-15.342,14.69,0.56,-0.17
89344.0,-147934.0,121563.0,393.0,0.0,0.0,0.0,982.387,-15.424,14.68,0.605,-0.04
89344.0,-147938.0,121558.0,393.0,0.0,0.0,0.0,979.982,-15.275,14.64,0.435,-0.09
89343.0,-147956.0,121536.0,393.0,0.0,0.0,0.0,977.621,-15.318,14.6,0.484,-0.02
89342.0,-147986.0,121504.0,393.0,0.0,0.0,0.0,978.145,-17.704,14.65,0.28,-0.1
89343.0,-148022.0,121464.0,393.0,0.0,0.0,0.0,980.563,-17.38,14.69,0.498,-0.16
89344.0,-148017.0,121467.0,393.0,0.0,0.0,0.0,980.542,-17.27,14.69,0.492,-0.23
89344.0,-148066.0,121415.0,393.0,0.0,0.0,0.0,980.01,-20.423,14.74,0.707,-0.16
89344.0,-148070.0,121409.0,393.0,0.0,0.0,0.0,980.41,-17.896,12.3,0.397,-0.14
89345.0,-148013.0,121463.0,393.0,0.0,0.0,0.0,980.504,-15.201,9.91,0.505,-0.19
89345.0,-147987.0,121487.0,393.0,0.0,0.0,0.0,982.855,-15.797,12.95,0.416,-0.19
89345.0,-147967.0,121505.0,393.0,0.0,0.0,0.0,980.453,-15.919,13.16,0.482,-0.17
89346.0,-147919.0,121549.0,393.0,0.0,0.0,0.0,977.698,-15.775,10.01,0.667,-0.18
89346.0,-147875.0,121590.0,393.0,0.0,0.0,0.0,978.517,-15.727,10.35,0.576,-0.17
89346.0,-147834.0,121629.0,393.0,0.0,0.0,0.0,978.693,-15.696,10.82,0.48,-0.18
89347.0,-147791.0,121670.0,390.0,0.0,0.0,0.0,978.539,-15.704,10.62,0.319,-0.18
89347.0,-147750.0,121709.0,390.0,0.0,0.0,0.0,978.522,-15.675,10.66,0.294,-0.18
89348.0,-147709.0,121749.0,390.0,0.0,0.0,0.0,978.495,-15.709,10.64,0.36,-0.18
89348.0,-147668.0,121787.0,390.0,0.0,0.0,0.0,980.873,-15.799,10.72,0.592,-0.18
89348.0,-147645.0,121807.0,390.0,0.0,0.0,0.0,983.086,-15.826,13.13,0.635,-0.18
89348.0,-147641.0,121808.0,390.0,0.0,0.0,0.0,982.428,-15.82,15.46,0.617,-0.18
89347.0,-147665.0,121781.0,390.0,0.0,0.0,0.0,982.152,-15.863,14.87,0.609,-0.04
89347.0,-147676.0,121767.0,390.0,0.0,0.0,0.0,982.333,-15.827,14.56,0.524,-0.08
89346.0,-147701.0,121739.0,360.0,0.0,0.0,0.0,982.284,-15.723,14.73,0.567,-0.02
89345.0,-147705.0,121732.0,360.0,0.0,0.0,0.0,982.279,-15.616,14.69,0.607,-0.1
89345.0,-147663.0,121767.0,360.0,0.0,0.0,0.0,982.211,-15.496,14.68,0.578,-0.16
89347.0,-147637.0,121792.0,360.0,0.0,0.0,0.0,979.821,-15.473,14.65,0.58,-0.23
89346.0,-147627.0,121799.0,360.0,0.0,0.0,0.0,977.518,-15.482,14.6,0.575,-0.16
89346.0,-147620.0,121803.0,360.0,0.0,0.0,0.0,978.159,-15.536,14.61,0.583,-0.14
89346.0,-147603.0,121818.0,360.0,0.0,0.0,0.0,978.525,-15.594,14.62,0.584,-0.19
89345.0,-147587.0,121829.0,355.0,0.0,0.0,0.0,978.41,-15.644,14.61,0.579,-0.19
89346.0,-147638.0,121777.0,355.0,0.0,0.0,0.0,978.471,-18.03,14.66,0.58,-0.03
89345.0,-147703.0,121709.0,355.0,0.0,0.0,0.0,978.453,-20.346,14.71,0.581,-0.09
89344.0,-147776.0,121631.0,355.0,0.0,0.0,0.0,978.453,-19.777,14.69,0.58,-0.02
89345.0,-147826.0,121579.0,355.0,0.0,0.0,0.0,976.019,-19.45,14.64,0.581,-0.1
89346.0,-147842.0,121560.0,355.0,0.0,0.0,0.0,973.634,-19.584,14.6,0.581,-0.25
89345.0,-147879.0,121519.0,355.0,0.0,0.0,0.0,976.534,-19.554,14.66,0.58,-0.16
89346.0,-147902.0,121494.0,355.0,0.0,0.0,0.0,979.118,-19.574,14.71,0.581,-0.23
89346.0,-147941.0,121453.0,358.0,0.0,0.0,0.0,978.373,-19.538,14.69,0.581,-0.16
89347.0,-147983.0,121409.0,358.0,0.0,0.0,0.0,978.158,-19.542,14.69,0.436,-0.14
89347.0,-148047.0,121341.0,358.0,0.0,0.0,0.0,978.416,-19.548,14.69,0.327,-0.19
89347.0,-148083.0,121303.0,358.0,0.0,0.0,0.0,978.451,-19.589,14.69,0.346,-0.17
89348.0,-148118.0,121266.0,358.0,0.0,0.0,0.0,978.452,-19.654,14.69,0.58,-0.18
89348.0,-148171.0,121209.0,358.0,0.0,0.0,0.0,980.76,-19.668,17.12,0.64,-0.17
89348.0,-148225.0,121153.0,358.0,0.0,0.0,0.0,980.682,-19.723,17.07,0.617,-0.17
89348.0,-148256.0,121119.0,359.0,0.0,0.0,0.0,977.843,-19.795,14.09,0.611,-0.18
89346.0,-148322.0,121049.0,359.0,0.0,0.0,0.0,980.463,-19.731,14.42,0.526,-0.04
89347.0,-148379.0,120989.0,359.0,0.0,0.0,0.0,983.212,-19.616,14.95,0.564,-0.08
89347.0,-148447.0,120919.0,359.0,0.0,0.0,0.0,982.393,-19.491,14.72,0.606,-0.02
89347.0,-148495.0,120868.0,359.0,0.0,0.0,0.0,982.106,-19.395,14.77,0.585,-0.1
89346.0,-148509.0,120850.0,359.0,0.0,0.0,0.0,982.21,-19.356,14.75,0.578,-0.25
89348.0,-148515.0,120843.0,359.0,0.0,0.0,0.0,982.178,-17.012,14.73,0.58,-0.16
89346.0,-148478.0,120876.0,359.0,0.0,0.0,0.0,982.178,-14.755,14.67,0.43,-0.23
89348.0,-148466.0,120888.0,360.0,0.0,0.0,0.0,982.186,-15.391,14.68,0.487,-0.15
89346.0,-148460.0,120889.0,360.0,0.0,0.0,0.0,982.267,-15.765,14.69,0.426,-0.14
89347.0,-148442.0,120906.0,360.0,0.0,0.0,0.0,979.957,-15.657,14.64,0.503,-0.19
89347.0,-148427.0,120919.0,360.0,0.0,0.0,0.0,977.692,-15.759,14.6,0.51,-0.19
89347.0,-148400.0,120944.0,360.0,0.0,0.0,0.0,978.394,-15.905,12.22,0.325,-0.17
89347.0,-148372.0,120970.0,360.0,0.0,0.0,0.0,978.702,-15.957,12.28,0.379,-0.18
89347.0,-148365.0,120974.0,360.0,0.0,0.0,0.0,978.424,-15.842,15.2,0.325,-0.17
89346.0,-148388.0,120949.0,360.0,0.0,0.0,0.0,978.451,-15.849,14.92,0.547,-0.03
89346.0,-148423.0,120911.0,358.0,0.0,0.0,0.0,978.409,-18.206,14.49,0.656,-0.09
89345.0,-148474.0,120857.0,358.0,0.0,0.0,0.0,978.379,-18.119,14.7,0.626,-0.02
89346.0,-148499.0,120829.0,358.0,0.0,0.0,0.0,980.695,-17.564,14.68,0.606,-0.1
89346.0,-148493.0,120833.0,358.0,0.0,0.0,0.0,980.589,-17.692,14.71,0.528,-0.25
89346.0,-148504.0,120819.0,358.0,0.0,0.0,0.0,977.645,-17.494,14.63,0.56,-0.16
89347.0,-148528.0,120792.0,358.0,0.0,0.0,0.0,977.895,-19.756,14.7,0.604,-0.23
89347.0,-148566.0,120751.0,358.0,0.0,0.0,0.0,978.398,-19.647,14.7,0.589,-0.15
89347.0,-148601.0,120714.0,358.0,0.0,0.0,0.0,978.252,-19.102,14.68,0.578,-0.14
89346.0,-148627.0,120682.0,356.0,0.0,0.0,0.0,978.377,-19.387,14.69,0.578,-0.19
89346.0,-148656.0,120652.0,356.0,0.0,0.0,0.0,978.413,-19.356,14.69,0.576,-0.18
89348.0,-148688.0,120617.0,356.0,0.0,0.0,0.0,978.482,-19.463,14.69,0.582,-0.17
89348.0,-148765.0,120537.0,356.0,0.0,0.0,0.0,978.382,-21.758,17.13,0.584,-0.18
89348.0,-148871.0,120428.0,356.0,0.0,0.0,0.0,978.359,-24.111,17.12,0.58,-0.17
89348.0,-148921.0,120375.0,356.0,0.0,0.0,0.0,978.454,-21.333,14.13,0.579,-0.17
89349.0,-148969.0,120325.0,356.0,0.0,0.0,0.0,978.409,-21.081,14.41,0.581,-0.18
89349.0,-149059.0,120232.0,356.0,0.0,0.0,0.0,978.345,-24.105,14.95,0.581,-0.18
89350.0,-149114.0,120174.0,354.0,0.0,0.0,0.0,978.341,-21.435,14.68,0.581,-0.17
89348.0,-149133.0,120150.0,354.0,0.0,0.0,0.0,978.336,-18.666,14.68,0.581,-0.18
89350.0,-149164.0,120118.0,354.0,0.0,0.0,0.0,978.325,-19.421,14.67,0.58,-0.17
89351.0,-149180.0,120099.0,354.0,0.0,0.0,0.0,978.402,-19.755,12.32,0.581,-0.18
89352.0,-149178.0,120098.0,354.0,0.0,0.0,0.0,978.485,-19.689,9.96,0.581,-0.18
89352.0,-149198.0,120076.0,354.0,0.0,0.0,0.0,978.394,-19.583,12.94,0.581,-0.17
89352.0,-149189.0,120082.0,354.0,0.0,0.0,0.0,976.034,-17.217,13.11,0.581,-0.17
89352.0,-149129.0,120138.0,354.0,0.0,0.0,0.0,973.836,-15.036,9.92,0.581,-0.18
89353.0,-149081.0,120184.0,351.0,0.0,0.0,0.0,976.788,-15.613,10.32,0.581,-0.17
89354.0,-149012.0,120247.0,351.0,0.0,0.0,0.0,978.573,-15.688,13.01,0.436,-0.17
89353.0,-148971.0,120286.0,351.0,0.0,0.0,0.0,978.232,-15.643,15.39,0.486,-0.17
89353.0,-148937.0,120318.0,351.0,0.0,0.0,0.0,978.409,-15.67,14.77,0.422,-0.17
89352.0,-148887.0,120365.0,351.0,0.0,0.0,0.0,978.389,-15.723,14.5,0.505,-0.17
89352.0,-148855.0,120393.0,351.0,0.0,0.0,0.0,978.378,-15.74,14.65,0.656,-0.17
89352.0,-148858.0,120388.0,351.0,0.0,0.0,0.0,980.737,-15.802,14.65,0.564,-0.17
89352.0,-148841.0,120402.0,351.0,0.0,0.0,0.0,983.074,-15.839,14.71,0.633,-0.17
89352.0,-148868.0,120373.0,351.0,0.0,0.0,0.0,982.469,-18.151,14.73,0.414,-0.17
89352.0,-148895.0,120344.0,351.0,0.0,0.0,0.0,982.082,-17.954,17.12,0.452,-0.17
89352.0,-148900.0,120338.0,351.0,0.0,0.0,0.0,982.194,-14.942,19.4,0.293,-0.17
89351.0,-148913.0,120322.0,351.0,0.0,0.0,0.0,982.168,-15.209,18.81,0.42,-0.17
89350.0,-148928.0,120304.0,351.0,0.0,0.0,0.0,982.185,-15.703,18.52,0.492,-0.17
89349.0,-148940.0,120290.0,351.0,0.0,0.0,0.0,982.164,-15.541,18.68,0.491,-0.17
89349.0,-148953.0,120273.0,351.0,0.0,0.0,0.0,982.18,-15.659,18.64,0.705,-0.17
89349.0,-148950.0,120274.0,350.0,0.0,0.0,0.0,982.256,-15.756,16.26,0.541,-0.17
89348.0,-148918.0,120303.0,350.0,0.0,0.0,0.0,982.264,-13.431,16.25,0.604,-0.17
89348.0,-148891.0,120327.0,350.0,0.0,0.0,0.0,982.249,-13.387,16.8,0.575,-0.17
89347.0,-148879.0,120336.0,350.0,0.0,0.0,0.0,982.318,-16.265,14.24,0.556,-0.17
89348.0,-148835.0,120377.0,350.0,0.0,0.0,0.0,982.329,-13.561,14.3,0.592,-0.17
89347.0,-148761.0,120449.0,350.0,0.0,0.0,0.0,982.327,-10.72,14.76,0.592,-0.17
89346.0,-148694.0,120513.0,350.0,0.0,0.0,0.0,982.33,-11.496,14.56,0.572,-0.17
89346.0,-148631.0,120573.0,350.0,0.0,0.0,0.0,982.326,-11.754,14.63,0.581,-0.17
89344.0,-148553.0,120645.0,350.0,0.0,0.0,0.0,979.797,-11.515,19.3,0.578,-0.17
89343.0,-148518.0,120677.0,350.0,0.0,0.0,0.0,977.496,-11.572,18.66,0.583,-0.17
89342.0,-148482.0,120709.0,350.0,0.0,0.0,0.0,978.093,-11.65,18.36,0.581,-0.17
89341.0,-148448.0,120741.0,350.0,0.0,0.0,0.0,978.392,-11.655,18.54,0.579,-0.17
89340.0,-148415.0,120771.0,350.0,0.0,0.0,0.0,980.599,-11.702,18.53,0.581,-0.17
89339.0,-148393.0,120790.0,350.0,0.0,0.0,0.0,980.654,-14.141,16.2,0.581,-0.17
89340.0,-148383.0,120797.0,350.0,0.0,0.0,0.0,977.802,-16.482,13.84,0.58,-0.17
89339.0,-148370.0,120807.0,350.0,0.0,0.0,0.0,980.459,-15.897,14.48,0.581,-0.17
89339.0,-148385.0,120789.0,350.0,0.0,0.0,0.0,983.217,-17.943,14.88,0.58,-0.17
89340.0,-148399.0,120772.0,350.0,0.0,0.0,0.0,982.427,-18.043,14.69,0.58,-0.17
89339.0,-148378.0,120790.0,350.0,0.0,0.0,0.0,982.194,-15.116,14.68,0.581,-0.17
89340.0,-148362.0,120805.0,350.0,0.0,0.0,0.0,982.33,-15.4,14.67,0.436,-0.17
89340.0,-148351.0,120814.0,350.0,0.0,0.0,0.0,979.943,-15.827,14.66,0.486,-0.17
89340.0,-148365.0,120798.0,350.0,0.0,0.0,0.0,977.603,-17.967,14.64,0.422,-0.17
89339.0,-148378.0,120781.0,350.0,0.0,0.0,0.0,978.169,-17.997,14.65,0.505,-0.17
89340.0,-148357.0,120799.0,350.0,0.0,0.0,0.0,978.513,-15.139,14.61,0.656,-0.17
89339.0,-148357.0,120796.0,350.0,0.0,0.0,0.0,978.256,-15.403,17.0,0.564,-0.17
89339.0,-148408.0,120743.0,350.0,0.0,0.0,0.0,980.578,-18.152,19.43,0.633,-0.17
89339.0,-148480.0,120668.0,350.0,0.0,0.0,0.0,980.526,-20.233,18.88,0.559,-0.17
89339.0,-148543.0,120603.0,350.0,0.0,0.0,0.0,980.024,-19.667,18.56,0.402,-0.17
89339.0,-148614.0,120527.0,350.0,0.0,0.0,0.0,982.655,-19.608,14.0,0.432,-0.17
89339.0,-148645.0,120494.0,350.0,0.0,0.0,0.0,982.121,-19.513,14.59,0.499,-0.17
89339.0,-148677.0,120458.0,350.0,0.0,0.0,0.0,982.33,-19.541,14.88,0.658,-0.17
89339.0,-148710.0,120422.0,350.0,0.0,0.0,0.0,982.265,-19.583,14.73,0.561,-0.17
89340.0,-148698.0,120431.0,350.0,0.0,0.0,0.0,982.398,-17.371,12.33,0.631,-0.17
89340.0,-148659.0,120467.0,350.0,0.0,0.0,0.0,982.374,-15.082,12.33,0.563,-0.17
89340.0,-148647.0,120476.0,350.0,0.0,0.0,0.0,982.287,-15.526,15.28,0.547,-0.17
89339.0,-148636.0,120483.0,350.0,0.0,0.0,0.0,982.3,-15.799,14.99,0.595,-0.17
89339.0,-148619.0,120497.0,350.0,0.0,0.0,0.0,982.308,-15.609,14.52,0.736,-0.17
89340.0,-148633.0,120481.0,350.0,0.0,0.0,0.0,982.292,-17.963,14.78,0.525,-0.17
89339.0,-148676.0,120435.0,350.0,0.0,0.0,0.0,982.293,-17.887,14.72,0.646,-0.03
89339.0,-148675.0,120434.0,350.0,0.0,0.0,0.0,982.306,-15.024,14.69,0.495,-0.08
89337.0,-148722.0,120384.0,350.0,0.0,0.0,0.0,982.297,-15.293,14.67,0.427,0.11
89337.0,-148746.0,120358.0,350.0,0.0,0.0,0.0,979.893,-15.765,14.65,0.531,-0.01
89336.0,-148747.0,120353.0,350.0,0.0,0.0,0.0,977.528,-15.585,14.6,0.417,-0.09
89336.0,-148753.0,120345.0,350.0,0.0,0.0,0.0,978.054,-15.708,14.61,0.495,-0.08
89336.0,-148712.0,120384.0,350.0,0.0,0.0,0.0,980.684,-15.778,14.66,0.517,-0.3
89336.0,-148708.0,120386.0,350.0,0.0,0.0,0.0,982.823,-15.887,14.7,0.462,-0.14
89336.0,-148693.0,120399.0,350.0,0.0,0.0,0.0,982.322,-15.894,14.69,0.476,-0.19
89336.0,-148682.0,120407.0,350.0,0.0,0.0,0.0,982.095,-15.886,14.68,0.49,-0.17
89336.0,-148675.0,120411.0,350.0,0.0,0.0,0.0,982.391,-15.866,14.69,0.475,-0.15
89335.0,-148676.0,120407.0,350.0,0.0,0.0,0.0,982.351,-15.73,17.08,0.628,-0.18
89335.0,-148692.0,120388.0,350.0,0.0,0.0,0.0,982.349,-15.596,19.41,0.579,-0.18
89334.0,-148708.0,120369.0,350.0,0.0,0.0,0.0,982.376,-15.564,18.82,0.492,-0.16
89333.0,-148720.0,120355.0,350.0,0.0,0.0,0.0,982.38,-15.518,18.52,0.462,-0.17
89332.0,-148732.0,120342.0,350.0,0.0,0.0,0.0,979.957,-15.442,18.64,0.392,-0.17
89332.0,-148726.0,120345.0,350.0,0.0,0.0,0.0,977.66,-15.486,16.16,0.516,-0.17
89332.0,-148704.0,120364.0,350.0,0.0,0.0,0.0,978.271,-15.592,13.85,0.664,-0.17
89333.0,-148688.0,120378.0,350.0,0.0,0.0,0.0,978.51,-15.618,14.43,0.418,-0.17
89333.0,-148643.0,120420.0,350.0,0.0,0.0,0.0,978.298,-15.65,14.74,0.54,-0.31
89333.0,-148608.0,120453.0,350.0,0.0,0.0,0.0,978.333,-15.685,14.57,0.396,-0.26
89334.0,-148559.0,120500.0,350.0,0.0,0.0,0.0,978.329,-15.695,14.61,0.47,-0.33
89334.0,-148556.0,120500.0,350.0,0.0,0.0,0.0,978.365,-18.049,14.65,0.675,-0.25
89334.0,-148586.0,120467.0,350.0,0.0,0.0,0.0,980.774,-18.025,14.71,0.574,-0.1
89335.0,-148579.0,120472.0,351.0,0.0,0.0,0.0,983.085,-15.088,17.08,0.482,-0.19
89334.0,-148635.0,120415.0,351.0,0.0,0.0,0.0,982.437,-17.597,19.46,0.321,-0.12
89333.0,-148703.0,120344.0,351.0,0.0,0.0,0.0,982.119,-20.34,18.92,0.29,-0.19
89332.0,-148757.0,120288.0,351.0,0.0,0.0,0.0,982.255,-19.548,18.59,0.36,-0.2
89332.0,-148790.0,120253.0,351.0,0.0,0.0,0.0,982.156,-16.974,18.71,0.594,-0.16
89331.0,-148835.0,120202.0,351.0,0.0,0.0,0.0,982.052,-17.856,18.69,0.617,-0.18
89330.0,-148876.0,120156.0,351.0,0.0,0.0,0.0,979.68,-18.089,18.64,0.754,-0.17
89330.0,-148908.0,120122.0,354.0,0.0,0.0,0.0,977.367,-17.306,18.59,0.619,-0.17
89330.0,-148954.0,120073.0,354.0,0.0,0.0,0.0,978.033,-19.931,16.26,0.726,-0.17
89330.0,-149000.0,120022.0,354.0,0.0,0.0,0.0,978.384,-17.337,16.27,0.683,-0.03
89328.0,-149005.0,120014.0,354.0,0.0,0.0,0.0,978.24,-14.42,16.75,0.508,-0.08
89328.0,-149014.0,120003.0,354.0,0.0,0.0,0.0,978.38,-15.238,14.15,0.594,-0.02
89327.0,-148981.0,120034.0,354.0,0.0,0.0,0.0,978.36,-15.458,14.27,0.382,-0.1
89327.0,-148899.0,120113.0,354.0,0.0,0.0,0.0,978.333,-15.377,14.78,0.502,-0.24
89327.0,-148834.0,120177.0,354.0,0.0,0.0,0.0,978.292,-15.505,14.56,0.457,-0.16
89327.0,-148760.0,120248.0,354.0,0.0,0.0,0.0,978.276,-15.653,14.63,0.347,-0.22
89326.0,-148752.0,120254.0,354.0,0.0,0.0,0.0,980.671,-15.845,14.64,0.55,-0.15
89326.0,-148777.0,120227.0,354.0,0.0,0.0,0.0,982.953,-15.871,17.1,0.41,-0.14
89326.0,-148786.0,120214.0,354.0,0.0,0.0,0.0,982.43,-15.943,17.03,0.555,-0.19
89325.0,-148791.0,120206.0,354.0,0.0,0.0,0.0,982.192,-15.972,16.48,0.637,-0.18
89325.0,-148784.0,120211.0,354.0,0.0,0.0,0.0,982.382,-15.913,16.72,0.533,-0.17
89325.0,-148765.0,120226.0,354.0,0.0,0.0,0.0,982.427,-15.907,14.27,0.646,-0.17
89325.0,-148755.0,120233.0,354.0,0.0,0.0,0.0,982.424,-15.779,14.34,0.568,-0.17
89325.0,-148742.0,120243.0,355.0,0.0,0.0,0.0,982.366,-15.632,14.87,0.544,-0.17
89326.0,-148724.0,120260.0,355.0,0.0,0.0,0.0,979.986,-15.516,14.58,0.599,-0.17
89325.0,-148706.0,120275.0,355.0,0.0,0.0,0.0,977.632,-15.432,14.62,0.587,-0.17
89325.0,-148687.0,120290.0,355.0,0.0,0.0,0.0,978.193,-15.428,14.59,0.573,-0.17
89325.0,-148670.0,120305.0,355.0,0.0,0.0,0.0,978.485,-15.459,14.63,0.441,-0.17
89325.0,-148655.0,120318.0,355.0,0.0,0.0,0.0,978.308,-15.513,14.61,0.483,-0.17
89325.0,-148639.0,120331.0,355.0,0.0,0.0,0.0,978.352,-15.586,14.61,0.419,-0.17
89325.0,-148625.0,120343.0,355.0,0.0,0.0,0.0,978.346,-15.669,14.62,0.509,-0.17
89325.0,-148610.0,120355.0,355.0,0.0,0.0,0.0,978.371,-15.754,14.61,0.656,-0.17
89325.0,-148597.0,120365.0,355.0,0.0,0.0,0.0,978.364,-15.82,14.61,0.563,-0.17
89324.0,-148600.0,120359.0,355.0,0.0,0.0,0.0,978.294,-15.76,17.0,0.634,-0.17
89323.0,-148619.0,120337.0,355.0,0.0,0.0,0.0,978.226,-15.65,19.34,0.559,-0.17
89323.0,-148617.0,120337.0,355.0,0.0,0.0,0.0,975.948,-15.67,16.31,0.402,-0.17
89323.0,-148597.0,120355.0,355.0,0.0,0.0,0.0,973.717,-15.662,13.63,0.357,-0.17
89323.0,-148597.0,120353.0,355.0,0.0,0.0,0.0,976.572,-15.514,16.83,0.336,-0.17
89323.0,-148616.0,120333.0,355.0,0.0,0.0,0.0,979.109,-15.433,19.48,0.341,-0.17
89323.0,-148598.0,120349.0,354.0,0.0,0.0,0.0,978.378,-15.498,18.72,0.583,-0.31
89322.0,-148588.0,120354.0,354.0,0.0,0.0,0.0,978.126,-15.588,18.43,0.636,-0.26
89322.0,-148568.0,120371.0,354.0,0.0,0.0,0.0,978.287,-15.658,18.61,0.615,-0.32
89322.0,-148567.0,120371.0,354.0,0.0,0.0,0.0,978.285,-15.683,18.58,0.47,-0.24
89322.0,-148624.0,120311.0,354.0,0.0,0.0,0.0,978.304,-17.987,18.62,0.431,-0.1
89320.0,-148660.0,120272.0,354.0,0.0,0.0,0.0,978.325,-17.85,18.6,0.403,-0.19
89320.0,-148676.0,120255.0,354.0,0.0,0.0,0.0,978.373,-14.899,18.56,0.531,-0.12
89320.0,-148662.0,120265.0,354.0,0.0,0.0,0.0,978.422,-15.222,16.17,0.66,-0.19
89320.0,-148636.0,120289.0,353.0,0.0,0.0,0.0,978.441,-15.772,13.85,0.561,-0.2
89320.0,-148622.0,120299.0,353.0,0.0,0.0,0.0,978.361,-15.553,14.43,0.632,-0.15
89320.0,-148610.0,120309.0,353.0,0.0,0.0,0.0,978.294,-15.599,14.74,0.554,-0.16
89320.0,-148609.0,120308.0,353.0,0.0,0.0,0.0,978.189,-15.482,16.96,0.404,-0.18
89319.0,-148610.0,120304.0,353.0,0.0,0.0,0.0,978.182,-15.502,16.95,0.506,-0.17
89319.0,-148590.0,120322.0,353.0,0.0,0.0,0.0,978.29,-15.594,14.02,0.43,-0.17
89319.0,-148572.0,120337.0,353.0,0.0,0.0,0.0,978.304,-15.613,14.32,0.498,-0.17
89319.0,-148559.0,120347.0,353.0,0.0,0.0,0.0,978.318,-15.657,14.78,0.659,-0.17
89319.0,-148545.0,120358.0,352.0,0.0,0.0,0.0,978.355,-15.717,14.57,0.561,-0.17
89319.0,-148531.0,120369.0,352.0,0.0,0.0,0.0,978.378,-15.752,14.63,0.631,-0.17
89319.0,-148545.0,120353.0,352.0,0.0,0.0,0.0,978.381,-18.097,14.64,0.563,-0.17
89319.0,-148557.0,120336.0,352.0,0.0,0.0,0.0,978.388,-18.004,14.67,0.547,-0.17
89319.0,-148536.0,120356.0,352.0,0.0,0.0,0.0,978.406,-15.078,14.6,0.595,-0.17
89319.0,-148545.0,120344.0,352.0,0.0,0.0,0.0,978.386,-17.649,14.65,0.591,-0.17
89320.0,-148585.0,120300.0,352.0,0.0,0.0,0.0,978.362,-20.376,14.71,0.575,-0.17
89321.0,-148601.0,120283.0,352.0,0.0,0.0,0.0,976.064,-19.642,12.26,0.438,-0.17
89321.0,-148613.0,120269.0,354.0,0.0,0.0,0.0,973.736,-19.379,12.26,0.483,-0.17
89321.0,-148603.0,120276.0,354.0,0.0,0.0,0.0,974.312,-17.188,12.77,0.42,-0.17
89322.0,-148549.0,120327.0,354.0,0.0,0.0,0.0,974.714,-15.033,10.11,0.508,-0.17
89322.0,-148503.0,120370.0,354.0,0.0,0.0,0.0,974.538,-15.665,10.23,0.656,-0.17
89323.0,-148465.0,120405.0,354.0,0.0,0.0,0.0,974.564,-15.989,10.76,0.563,-0.17
89323.0,-148423.0,120444.0,354.0,0.0,0.0,0.0,974.564,-15.882,10.53,0.633,-0.17
89324.0,-148383.0,120482.0,354.0,0.0,0.0,0.0,974.582,-15.9,10.6,0.559,-0.17
89324.0,-148358.0,120504.0,354.0,0.0,0.0,0.0,974.493,-15.748,12.95,0.547,-0.17
89324.0,-148376.0,120483.0,354.0,0.0,0.0,0.0,976.779,-17.98,15.41,0.597,-0.17
89324.0,-148448.0,120408.0,354.0,0.0,0.0,0.0,979.112,-20.237,14.9,0.59,-0.03
89323.0,-148500.0,120352.0,354.0,0.0,0.0,0.0,978.534,-19.626,14.56,0.575,-0.08
89323.0,-148579.0,120271.0,354.0,0.0,0.0,0.0,978.137,-19.219,17.12,0.583,-0.02
89322.0,-148658.0,120191.0,354.0,0.0,0.0,0.0,978.205,-19.306,19.41,0.432,-0.1
89323.0,-148700.0,120146.0,354.0,0.0,0.0,0.0,978.143,-19.309,18.83,0.484,-0.24
89323.0,-148744.0,120099.0,354.0,0.0,0.0,0.0,978.207,-19.458,16.12,0.426,-0.15
89322.0,-148790.0,120051.0,354.0,0.0,0.0,0.0,978.246,-19.575,13.97,0.505,-0.08
89322.0,-148801.0,120036.0,352.0,0.0,0.0,0.0,978.355,-17.375,12.07,0.655,-0.06
89321.0,-148804.0,120030.0,352.0,0.0,0.0,0.0,978.398,-15.122,12.4,0.565,0.01
89321.0,-148805.0,120027.0,352.0,0.0,0.0,0.0,978.342,-15.621,15.15,0.633,-0.11
89321.0,-148777.0,120051.0,352.0,0.0,0.0,0.0,980.744,-15.934,14.97,0.559,-0.25
89321.0,-148767.0,120059.0,352.0,0.0,0.0,0.0,983.078,-15.746,14.52,0.548,-0.15
89321.0,-148728.0,120094.0,352.0,0.0,0.0,0.0,982.399,-15.613,17.13,0.597,-0.22
89319.0,-148731.0,120089.0,352.0,0.0,0.0,0.0,982.031,-15.453,19.4,0.59,-0.15
89319.0,-148719.0,120098.0,352.0,0.0,0.0,0.0,982.248,-15.452,18.84,0.575,-0.14
89318.0,-148725.0,120089.0,354.0,0.0,0.0,0.0,982.172,-15.349,20.89,0.583,-0.19
89318.0,-148792.0,120019.0,354.0,0.0,0.0,0.0,982.189,-17.701,21.07,0.577,-0.18
89317.0,-148840.0,119968.0,354.0,0.0,0.0,0.0,982.198,-17.697,20.49,0.579,-0.16
89316.0,-148868.0,119938.0,354.0,0.0,0.0,0.0,982.212,-14.846,20.66,0.584,-0.17
89315.0,-148896.0,119907.0,354.0,0.0,0.0,0.0,979.883,-17.57,18.21,0.581,-0.17
89315.0,-148985.0,119815.0,354.0,0.0,0.0,0.0,977.515,-20.334,18.3,0.579,-0.03
89314.0,-149038.0,119758.0,354.0,0.0,0.0,0.0,978.078,-17.205,18.78,0.581,-0.08
89313.0,-149074.0,119720.0,354.0,0.0,0.0,0.0,980.747,-14.708,18.53,0.58,-0.02
89311.0,-149082.0,119708.0,358.0,0.0,0.0,0.0,982.93,-15.53,16.29,0.581,-0.09
89312.0,-149049.0,119739.0,358.0,0.0,0.0,0.0,982.421,-15.897,13.9,0.581,-0.24
89312.0,-149035.0,119750.0,358.0,0.0,0.0,0.0,982.048,-15.69,14.51,0.58,-0.15
89312.0,-149010.0,119772.0,358.0,0.0,0.0,0.0,982.213,-15.696,14.82,0.58,-0.22
89312.0,-149000.0,119779.0,358.0,0.0,0.0,0.0,982.189,-15.706,14.64,0.581,-0.15
89312.0,-148993.0,119783.0,358.0,0.0,0.0,0.0,982.26,-15.709,14.69,0.581,-0.14
89312.0,-148974.0,119799.0,358.0,0.0,0.0,0.0,982.318,-15.689,14.68,0.581,-0.18
89312.0,-148958.0,119813.0,358.0,0.0,0.0,0.0,982.388,-15.695,14.7,0.436,-0.18
89312.0,-148973.0,119796.0,358.0,0.0,0.0,0.0,982.408,-18.046,14.73,0.486,-0.16
89313.0,-148986.0,119781.0,358.0,0.0,0.0,0.0,982.413,-18.001,14.73,0.422,-0.17
89313.0,-148965.0,119799.0,358.0,0.0,0.0,0.0,980.046,-15.137,14.63,0.505,-0.17
89313.0,-148947.0,119814.0,358.0,0.0,0.0,0.0,977.698,-15.433,14.59,0.656,-0.17
89313.0,-148934.0,119825.0,358.0,0.0,0.0,0.0,978.249,-15.944,14.61,0.564,-0.17
89312.0,-148933.0,119822.0,358.0,0.0,0.0,0.0,978.604,-15.839,12.23,0.633,-0.03
89312.0,-148924.0,119828.0,358.0,0.0,0.0,0.0,978.405,-15.865,12.28,0.559,-0.08
89311.0,-148931.0,119820.0,358.0,0.0,0.0,0.0,978.404,-15.762,12.81,0.402,-0.02
89311.0,-148919.0,119830.0,360.0,0.0,0.0,0.0,978.37,-15.736,12.58,0.357,-0.09
89311.0,-148922.0,119826.0,360.0,0.0,0.0,0.0,978.271,-15.584,15.03,0.192,-0.1
89310.0,-148933.0,119813.0,360.0,0.0,0.0,0.0,978.227,-15.588,14.96,0.246,-0.06
89310.0,-148966.0,119777.0,360.0,0.0,0.0,0.0,978.219,-18.025,14.48,0.424,-0.07
89310.0,-149000.0,119741.0,360.0,0.0,0.0,0.0,978.222,-18.068,14.72,0.561,-0.07
89309.0,-149016.0,119721.0,360.0,0.0,0.0,0.0,980.558,-15.249,17.01,0.69,-0.07
89308.0,-149051.0,119684.0,360.0,0.0,0.0,0.0,982.82,-17.865,19.49,0.599,-0.08
89307.0,-149122.0,119610.0,360.0,0.0,0.0,0.0,979.9,-20.586,18.87,0.578,-0.07
89306.0,-149126.0,119603.0,368.0,0.0,0.0,0.0,977.411,-17.404,16.07,0.54,-0.07
89306.0,-149087.0,119639.0,368.0,0.0,0.0,0.0,978.196,-14.698,16.26,0.574,-0.21
89306.0,-149096.0,119626.0,368.0,0.0,0.0,0.0,978.454,-15.251,16.76,0.601,-0.16
89306.0,-149060.0,119660.0,368.0,0.0,0.0,0.0,978.396,-15.536,14.16,0.587,-0.23
89306.0,-149054.0,119664.0,368.0,0.0,0.0,0.0,978.442,-15.325,14.25,0.575,-0.15
89307.0,-148993.0,119719.0,368.0,0.0,0.0,0.0,976.214,-15.495,12.13,0.579,-0.18
89307.0,-148961.0,119747.0,368.0,0.0,0.0,0.0,973.887,-15.558,12.21,0.583,-0.18
89306.0,-148950.0,119756.0,394.0,0.0,0.0,0.0,974.378,-15.525,15.1,0.583,-0.17
89306.0,-148964.0,119739.0,394.0,0.0,0.0,0.0,974.672,-15.614,14.86,0.58,-0.03
89305.0,-148969.0,119732.0,394.0,0.0,0.0,0.0,976.858,-15.704,14.41,0.434,-0.07
89305.0,-149015.0,119684.0,394.0,0.0,0.0,0.0,979.162,-18.088,14.71,0.486,-0.01
89305.0,-149069.0,119627.0,394.0,0.0,0.0,0.0,978.502,-20.394,14.7,0.422,-0.1
89306.0,-149087.0,119606.0,394.0,0.0,0.0,0.0,978.158,-19.826,14.71,0.505,-0.24
89306.0,-149120.0,119571.0,394.0,0.0,0.0,0.0,978.265,-19.545,14.67,0.656,-0.15
89307.0,-149141.0,119547.0,394.0,0.0,0.0,0.0,980.577,-19.748,14.74,0.564,-0.22
89307.0,-149177.0,119508.0,394.0,0.0,0.0,0.0,982.935,-19.72,14.78,0.633,-0.15
89307.0,-149215.0,119467.0,394.0,0.0,0.0,0.0,980.013,-19.664,14.72,0.559,-0.14
89307.0,-149242.0,119438.0,394.0,0.0,0.0,0.0,979.85,-19.58,14.72,0.402,-0.18
89307.0,-149285.0,119392.0,394.0,0.0,0.0,0.0,980.531,-19.446,17.12,0.502,-0.18
89307.0,-149345.0,119330.0,394.0,0.0,0.0,0.0,977.843,-19.289,19.41,0.432,-0.16
89307.0,-149399.0,119273.0,394.0,0.0,0.0,0.0,978.0,-19.305,18.82,0.499,-0.17
89306.0,-149452.0,119217.0,394.0,0.0,0.0,0.0,978.499,-19.36,18.52,0.658,-0.16
89306.0,-149508.0,119158.0,394.0,0.0,0.0,0.0,980.636,-19.427,18.73,0.561,-0.17
89306.0,-149562.0,119101.0,394.0,0.0,0.0,0.0,982.995,-19.493,18.73,0.631,-0.17
89305.0,-149617.0,119043.0,394.0,0.0,0.0,0.0,982.331,-19.498,18.73,0.563,-0.17
89305.0,-149671.0,118986.0,394.0,0.0,0.0,0.0,979.665,-19.45,18.66,0.547,-0.17
89305.0,-149725.0,118930.0,394.0,0.0,0.0,0.0,977.479,-19.386,18.64,0.45,-0.17
89305.0,-149778.0,118875.0,394.0,0.0,0.0,0.0,978.008,-19.351,18.64,0.496,-0.17
89304.0,-149859.0,118792.0,394.0,0.0,0.0,0.0,978.331,-19.337,18.65,0.417,-0.03
89303.0,-149930.0,118718.0,394.0,0.0,0.0,0.0,978.142,-19.351,18.65,0.507,-0.08
89303.0,-150014.0,118632.0,394.0,0.0,0.0,0.0,978.2,-19.394,18.65,0.653,-0.01
89302.0,-150038.0,118604.0,394.0,0.0,0.0,0.0,978.265,-17.188,16.21,0.562,-0.09
89302.0,-149993.0,118647.0,394.0,0.0,0.0,0.0,978.34,-15.017,13.83,0.492,-0.24
89303.0,-150004.0,118634.0,394.0,0.0,0.0,0.0,978.263,-17.922,14.48,0.464,-0.15
89303.0,-150033.0,118603.0,394.0,0.0,0.0,0.0,978.23,-20.48,14.83,0.387,-0.22
89303.0,-150066.0,118567.0,394.0,0.0,0.0,0.0,978.266,-19.712,14.65,0.521,-0.15
89303.0,-150095.0,118532.0,394.0,0.0,0.0,0.0,978.393,-17.258,14.64,0.559,-0.18
89303.0,-150094.0,118530.0,394.0,0.0,0.0,0.0,978.445,-17.288,14.65,0.636,-0.18
89304.0,-150129.0,118492.0,350.0,0.0,0.0,0.0,978.459,-20.138,14.7,0.556,-0.16
89304.0,-150159.0,118459.0,350.0,0.0,0.0,0.0,978.466,-19.809,14.69,0.545,-0.17
89305.0,-150184.0,118432.0,350.0,0.0,0.0,0.0,978.457,-19.316,14.69,0.601,-0.16
89304.0,-150239.0,118373.0,350.0,0.0,0.0,0.0,978.432,-19.489,14.69,0.59,-0.02
89305.0,-150227.0,118383.0,350.0,0.0,0.0,0.0,978.413,-17.078,14.64,0.429,-0.22
89304.0,-150211.0,118396.0,350.0,0.0,0.0,0.0,978.39,-14.827,14.6,0.488,-0.11
89305.0,-150174.0,118432.0,350.0,0.0,0.0,0.0,978.348,-15.402,14.61,0.419,-0.25
89305.0,-150127.0,118476.0,350.0,0.0,0.0,0.0,978.319,-15.771,14.62,0.503,-0.31
89304.0,-150142.0,118458.0,341.0,0.0,0.0,0.0,978.234,-15.585,17.0,0.66,-0.08
89304.0,-150141.0,118457.0,341.0,0.0,0.0,0.0,978.179,-15.597,19.34,0.564,-0.23
89303.0,-150164.0,118430.0,341.0,0.0,0.0,0.0,980.614,-15.668,18.79,0.631,-0.1
89302.0,-150204.0,118388.0,341.0,0.0,0.0,0.0,982.983,-15.704,18.53,0.415,-0.01
89301.0,-150249.0,118341.0,341.0,0.0,0.0,0.0,982.396,-17.973,18.74,0.452,-0.12
89301.0,-150343.0,118245.0,341.0,0.0,0.0,0.0,982.066,-20.207,18.73,0.438,-0.01
89300.0,-150414.0,118171.0,341.0,0.0,0.0,0.0,979.821,-19.573,18.69,0.515,-0.08
89299.0,-150445.0,118135.0,341.0,0.0,0.0,0.0,977.4,-19.244,18.62,0.651,-0.25
89300.0,-150500.0,118078.0,338.0,0.0,0.0,0.0,977.941,-19.439,18.65,0.566,-0.15
89300.0,-150524.0,118050.0,338.0,0.0,0.0,0.0,978.28,-19.506,16.26,0.775,-0.22
89300.0,-150576.0,117995.0,338.0,0.0,0.0,0.0,978.203,-21.941,13.96,0.652,-0.15
89301.0,-150662.0,117906.0,338.0,0.0,0.0,0.0,978.264,-24.159,14.6,0.71,-0.13
89301.0,-150731.0,117834.0,338.0,0.0,0.0,0.0,975.938,-23.5,14.85,0.673,-0.18
89302.0,-150796.0,117766.0,338.0,0.0,0.0,0.0,976.082,-23.134,14.68,0.513,-0.18
89303.0,-150867.0,117693.0,338.0,0.0,0.0,0.0,979.011,-23.272,14.78,0.447,-0.16
89303.0,-150909.0,117649.0,338.0,0.0,0.0,0.0,978.762,-20.874,14.72,0.435,-0.17
89303.0,-150925.0,117631.0,347.0,0.0,0.0,0.0,978.299,-18.632,14.68,0.295,-0.16
89303.0,-150949.0,117605.0,347.0,0.0,0.0,0.0,978.484,-19.298,14.68,0.442,-0.16
89303.0,-150976.0,117575.0,347.0,0.0,0.0,0.0,978.401,-19.752,14.69,0.485,-0.17
89304.0,-151004.0,117545.0,347.0,0.0,0.0,0.0,978.399,-19.724,14.69,0.479,-0.17
89305.0,-150991.0,117555.0,347.0,0.0,0.0,0.0,978.433,-17.607,12.25,0.712,-0.16
89305.0,-150951.0,117592.0,347.0,0.0,0.0,0.0,978.444,-15.339,12.26,0.541,-0.17
89305.0,-150964.0,117576.0,347.0,0.0,0.0,0.0,978.321,-18.124,15.25,0.603,-0.17
89305.0,-151003.0,117534.0,347.0,0.0,0.0,0.0,978.306,-20.597,15.01,0.577,-0.17
89305.0,-151045.0,117490.0,352.0,0.0,0.0,0.0,978.256,-19.638,16.91,0.409,-0.17
89305.0,-151074.0,117456.0,352.0,0.0,0.0,0.0,980.737,-19.439,14.14,0.435,-0.17
89305.0,-151092.0,117436.0,352.0,0.0,0.0,0.0,982.977,-19.32,16.88,0.496,-0.17
89304.0,-151099.0,117426.0,352.0,0.0,0.0,0.0,980.022,-16.972,17.17,0.656,-0.03
89304.0,-151094.0,117428.0,352.0,0.0,0.0,0.0,977.502,-17.176,14.0,0.565,-0.07
89303.0,-151113.0,117406.0,352.0,0.0,0.0,0.0,978.232,-17.789,14.36,0.631,-0.01
89302.0,-151080.0,117435.0,352.0,0.0,0.0,0.0,978.469,-15.241,14.75,0.561,-0.09
89302.0,-151020.0,117493.0,356.0,0.0,0.0,0.0,978.277,-15.356,14.58,0.548,-0.24
89302.0,-151013.0,117497.0,356.0,0.0,0.0,0.0,978.261,-15.844,14.62,0.595,-0.01
89301.0,-151008.0,117499.0,356.0,0.0,0.0,0.0,978.251,-15.591,14.59,0.591,-0.12
89301.0,-151022.0,117482.0,356.0,0.0,0.0,0.0,978.276,-15.633,14.63,0.576,0.0
89300.0,-151033.0,117468.0,356.0,0.0,0.0,0.0,978.288,-15.578,14.61,0.582,-0.06
89301.0,-150960.0,117538.0,356.0,0.0,0.0,0.0,978.323,-15.61,14.61,0.578,-0.25
89300.0,-150915.0,117580.0,356.0,0.0,0.0,0.0,978.345,-15.604,14.62,0.579,-0.16
89301.0,-150856.0,117636.0,356.0,0.0,0.0,0.0,978.361,-15.614,14.61,0.584,-0.21
89301.0,-150798.0,117692.0,363.0,0.0,0.0,0.0,978.393,-15.641,14.61,0.581,-0.29
89301.0,-150837.0,117650.0,363.0,0.0,0.0,0.0,978.425,-18.0,14.66,0.579,-0.08
89302.0,-150853.0,117631.0,363.0,0.0,0.0,0.0,978.462,-20.308,14.7,0.581,-0.24
89301.0,-150903.0,117577.0,363.0,0.0,0.0,0.0,978.505,-19.739,14.69,0.58,-0.1
89301.0,-150953.0,117525.0,363.0,0.0,0.0,0.0,978.521,-19.442,14.69,0.726,-0.01
89302.0,-150955.0,117519.0,363.0,0.0,0.0,0.0,978.502,-19.606,14.69,0.676,-0.25
89302.0,-150996.0,117475.0,363.0,0.0,0.0,0.0,978.452,-19.55,14.69,0.739,-0.1
89302.0,-151036.0,117431.0,363.0,0.0,0.0,0.0,978.385,-19.53,14.69,0.656,-0.09
89302.0,-151075.0,117390.0,363.0,0.0,0.0,0.0,978.322,-19.47,14.69,0.505,-0.09
89301.0,-151139.0,117323.0,363.0,0.0,0.0,0.0,980.649,-19.465,14.73,0.597,0.03
89301.0,-151176.0,117282.0,363.0,0.0,0.0,0.0,982.939,-19.468,14.78,0.528,-0.1
89301.0,-151156.0,117300.0,363.0,0.0,0.0,0.0,982.345,-17.135,14.72,0.602,-0.25
89301.0,-151131.0,117322.0,363.0,0.0,0.0,0.0,979.668,-14.877,14.63,0.614,-0.14
89301.0,-151068.0,117382.0,363.0,0.0,0.0,0.0,977.522,-15.503,14.6,0.564,-0.22
89301.0,-151006.0,117441.0,363.0,0.0,0.0,0.0,978.105,-15.867,14.61,0.571,-0.14
89301.0,-150929.0,117516.0,363.0,0.0,0.0,0.0,978.568,-15.826,12.23,0.586,-0.13
89301.0,-150831.0,117611.0,360.0,0.0,0.0,0.0,978.531,-15.961,9.89,0.578,-0.18
89302.0,-150756.0,117683.0,360.0,0.0,0.0,0.0,978.625,-15.919,10.48,0.584,-0.18
89302.0,-150708.0,117727.0,360.0,0.0,0.0,0.0,978.627,-15.902,10.78,0.582,-0.16
89303.0,-150625.0,117808.0,360.0,0.0,0.0,0.0,978.726,-15.95,8.23,0.577,-0.17
89304.0,-150559.0,117871.0,360.0,0.0,0.0,0.0,978.692,-15.918,8.32,0.581,-0.16
89305.0,-150551.0,117876.0,360.0,0.0,0.0,0.0,978.553,-18.135,11.29,0.582,-0.16
89305.0,-150513.0,117910.0,360.0,0.0,0.0,0.0,978.609,-18.158,8.63,0.58,-0.17
89306.0,-150477.0,117944.0,360.0,0.0,0.0,0.0,978.683,-15.383,5.75,0.581,-0.02
89307.0,-150420.0,117998.0,356.0,0.0,0.0,0.0,981.004,-15.652,6.6,0.581,-0.07
89308.0,-150379.0,118036.0,356.0,0.0,0.0,0.0,983.289,-16.137,6.91,0.58,-0.01
89309.0,-150356.0,118056.0,356.0,0.0,0.0,0.0,980.292,-18.258,6.75,0.581,-0.09
89310.0,-150299.0,118110.0,356.0,0.0,0.0,0.0,977.619,-20.587,6.76,0.581,-0.38
89312.0,-150234.0,118172.0,356.0,0.0,0.0,0.0,978.363,-17.65,6.73,0.58,-0.24
89314.0,-150115.0,118289.0,356.0,0.0,0.0,0.0,978.644,-15.095,6.7,0.581,-0.37
89315.0,-150034.0,118368.0,356.0,0.0,0.0,0.0,980.912,-15.847,6.73,0.436,-0.22
89316.0,-150032.0,118367.0,356.0,0.0,0.0,0.0,983.261,-18.386,9.23,0.486,-0.06
89317.0,-150044.0,118353.0,358.0,0.0,0.0,0.0,980.321,-20.426,11.55,0.422,-0.2
89317.0,-150059.0,118335.0,358.0,0.0,0.0,0.0,977.804,-19.888,10.9,0.505,-0.12
89318.0,-150056.0,118335.0,358.0,0.0,0.0,0.0,978.561,-19.645,10.6,0.656,-0.18
89319.0,-150069.0,118319.0,358.0,0.0,0.0,0.0,978.695,-19.771,13.17,0.564,-0.2
89319.0,-150106.0,118278.0,358.0,0.0,0.0,0.0,978.384,-19.637,15.46,0.633,-0.15
89319.0,-150139.0,118243.0,358.0,0.0,0.0,0.0,978.343,-19.65,14.88,0.559,-0.15
89319.0,-150165.0,118214.0,358.0,0.0,0.0,0.0,978.296,-19.591,14.55,0.547,-0.17
89319.0,-150192.0,118184.0,358.0,0.0,0.0,0.0,975.892,-19.505,14.69,0.597,-0.16
89319.0,-150218.0,118155.0,364.0,0.0,0.0,0.0,975.915,-19.449,14.65,0.59,-0.17
89321.0,-150215.0,118156.0,364.0,0.0,0.0,0.0,978.835,-19.44,14.71,0.575,-0.31
89322.0,-150193.0,118175.0,364.0,0.0,0.0,0.0,978.582,-19.434,14.69,0.583,-0.39
89323.0,-150168.0,118197.0,364.0,0.0,0.0,0.0,978.146,-19.44,14.69,0.577,-0.41
89325.0,-150147.0,118215.0,364.0,0.0,0.0,0.0,980.799,-19.489,14.74,0.579,-0.39
89324.0,-150146.0,118213.0,364.0,0.0,0.0,0.0,983.15,-19.542,14.78,0.584,-0.16
89324.0,-150137.0,118220.0,364.0,0.0,0.0,0.0,980.305,-19.545,14.72,0.581,-0.11
89324.0,-150121.0,118233.0,364.0,0.0,0.0,0.0,980.078,-19.568,14.72,0.579,-0.13
89324.0,-150109.0,118242.0,358.0,0.0,0.0,0.0,983.161,-19.613,14.78,0.581,-0.13
89324.0,-150142.0,118206.0,358.0,0.0,0.0,0.0,982.675,-19.531,17.16,0.58,-0.22
89324.0,-150195.0,118150.0,358.0,0.0,0.0,0.0,982.079,-19.529,17.1,0.581,-0.18
89325.0,-150173.0,118169.0,358.0,0.0,0.0,0.0,982.246,-19.632,14.18,0.581,-0.28
89324.0,-150198.0,118140.0,358.0,0.0,0.0,0.0,982.103,-19.613,14.46,0.58,-0.11
89325.0,-150171.0,118166.0,358.0,0.0,0.0,0.0,982.076,-19.588,14.93,0.58,-0.23
89323.0,-150197.0,118136.0,358.0,0.0,0.0,0.0,982.063,-19.588,14.72,0.581,-0.09
89324.0,-150276.0,118054.0,358.0,0.0,0.0,0.0,982.129,-19.581,14.77,0.581,-0.02
89325.0,-150284.0,118043.0,354.0,0.0,0.0,0.0,982.184,-19.58,14.75,0.436,-0.25
89324.0,-150311.0,118015.0,354.0,0.0,0.0,0.0,982.228,-17.235,14.73,0.341,-0.09
89324.0,-150265.0,118059.0,354.0,0.0,0.0,0.0,982.268,-14.956,14.67,0.327,-0.24
89324.0,-150236.0,118086.0,354.0,0.0,0.0,0.0,982.276,-15.572,14.68,0.346,-0.18
89324.0,-150263.0,118056.0,354.0,0.0,0.0,0.0,982.273,-18.283,14.74,0.58,-0.12
89325.0,-150275.0,118043.0,354.0,0.0,0.0,0.0,979.92,-18.118,14.69,0.64,-0.17
89325.0,-150275.0,118039.0,354.0,0.0,0.0,0.0,977.621,-17.665,14.63,0.617,-0.18
89324.0,-150312.0,117998.0,354.0,0.0,0.0,0.0,978.203,-20.222,14.7,0.611,-0.16
89325.0,-150345.0,117964.0,350.0,0.0,0.0,0.0,978.512,-20.053,14.7,0.526,-0.17
89325.0,-150370.0,117934.0,350.0,0.0,0.0,0.0,978.343,-19.402,14.69,0.564,-0.16
89325.0,-150399.0,117903.0,350.0,0.0,0.0,0.0,976.005,-19.477,14.65,0.606,-0.16
89326.0,-150422.0,117877.0,350.0,0.0,0.0,0.0,973.667,-19.298,14.6,0.585,-0.17
89326.0,-150446.0,117851.0,350.0,0.0,0.0,0.0,974.263,-19.3,14.61,0.433,-0.17
89326.0,-150471.0,117823.0,350.0,0.0,0.0,0.0,976.92,-19.296,14.66,0.485,-0.16
89326.0,-150497.0,117795.0,350.0,0.0,0.0,0.0,979.07,-19.376,14.7,0.417,-0.16
89326.0,-150495.0,117794.0,350.0,0.0,0.0,0.0,978.542,-17.11,14.65,0.507,-0.16
89326.0,-150467.0,117820.0,349.0,0.0,0.0,0.0,978.237,-14.906,14.6,0.515,-0.16
89326.0,-150446.0,117838.0,349.0,0.0,0.0,0.0,978.422,-15.586,14.61,0.468,-0.16
89326.0,-150431.0,117852.0,349.0,0.0,0.0,0.0,978.364,-15.952,14.62,0.473,-0.16
89326.0,-150414.0,117867.0,349.0,0.0,0.0,0.0,978.379,-15.811,14.61,0.483,-0.16
89326.0,-150396.0,117881.0,349.0,0.0,0.0,0.0,978.367,-15.845,14.61,0.623,-0.16
89326.0,-150407.0,117868.0,349.0,0.0,0.0,0.0,978.366,-18.145,14.66,0.581,-0.16
89326.0,-150459.0,117812.0,349.0,0.0,0.0,0.0,978.273,-20.312,17.09,0.643,-0.16
89325.0,-150489.0,117779.0,349.0,0.0,0.0,0.0,978.195,-19.561,19.42,0.553,-0.16
89325.0,-150506.0,117759.0,350.0,0.0,0.0,0.0,978.299,-19.292,16.43,0.55,-0.16
89325.0,-150523.0,117739.0,350.0,0.0,0.0,0.0,978.383,-19.49,13.79,0.594,-0.02
89324.0,-150550.0,117709.0,350.0,0.0,0.0,0.0,978.356,-19.375,14.55,0.588,-0.07
89324.0,-150595.0,117661.0,350.0,0.0,0.0,0.0,978.351,-17.027,14.77,0.579,-0.01
89323.0,-150546.0,117708.0,350.0,0.0,0.0,0.0,978.345,-14.746,14.56,0.583,-0.09
89323.0,-150498.0,117752.0,350.0,0.0,0.0,0.0,978.304,-15.378,14.6,0.576,-0.24
89323.0,-150446.0,117802.0,350.0,0.0,0.0,0.0,980.641,-15.745,14.66,0.579,-0.15
89323.0,-150379.0,117867.0,350.0,0.0,0.0,0.0,983.028,-15.726,12.32,0.584,-0.21
89324.0,-150353.0,117890.0,348.0,0.0,0.0,0.0,980.169,-15.866,9.91,0.581,-0.14
89324.0,-150312.0,117927.0,348.0,0.0,0.0,0.0,977.577,-15.831,10.46,0.58,-0.13
89325.0,-150276.0,117961.0,348.0,0.0,0.0,0.0,978.387,-15.855,10.78,0.581,-0.18
89325.0,-150225.0,118008.0,348.0,0.0,0.0,0.0,978.709,-15.849,10.62,0.58,-0.17
89326.0,-150203.0,118027.0,348.0,0.0,0.0,0.0,978.568,-18.186,10.71,0.581,-0.16
89327.0,-150189.0,118039.0,348.0,0.0,0.0,0.0,978.602,-18.126,10.69,0.581,-0.17
89327.0,-150170.0,118055.0,348.0,0.0,0.0,0.0,978.597,-17.585,10.7,0.58,-0.16
89328.0,-150177.0,118044.0,348.0,0.0,0.0,0.0,978.574,-20.147,10.74,0.58,-0.16
89328.0,-150199.0,118020.0,346.0,0.0,0.0,0.0,978.447,-19.942,13.13,0.581,-0.17
89328.0,-150229.0,117987.0,346.0,0.0,0.0,0.0,978.35,-19.343,15.46,0.581,-0.16
89328.0,-150260.0,117954.0,346.0,0.0,0.0,0.0,980.72,-19.606,14.91,0.436,-0.16
89329.0,-150259.0,117952.0,346.0,0.0,0.0,0.0,983.031,-19.572,14.65,0.486,-0.3
89330.0,-150300.0,117909.0,346.0,0.0,0.0,0.0,982.436,-19.615,14.81,0.422,-0.11
89330.0,-150316.0,117890.0,346.0,0.0,0.0,0.0,982.14,-19.607,14.76,0.505,-0.23
89330.0,-150362.0,117840.0,346.0,0.0,0.0,0.0,982.326,-19.662,14.77,0.656,-0.08
89329.0,-150393.0,117807.0,346.0,0.0,0.0,0.0,982.304,-19.705,14.75,0.564,-0.02
89329.0,-150355.0,117842.0,350.0,0.0,0.0,0.0,982.32,-19.711,14.77,0.633,-0.25
89330.0,-150347.0,117848.0,350.0,0.0,0.0,0.0,982.287,-19.692,14.77,0.414,-0.1
89330.0,-150314.0,117880.0,350.0,0.0,0.0,0.0,982.27,-19.637,14.76,0.452,-0.23
89330.0,-150311.0,117880.0,350.0,0.0,0.0,0.0,982.239,-19.578,14.77,0.438,-0.31
89331.0,-150342.0,117846.0,350.0,0.0,0.0,0.0,982.225,-19.545,14.76,0.514,-0.21
89331.0,-150343.0,117841.0,350.0,0.0,0.0,0.0,979.873,-19.526,14.72,0.651,-0.32
89333.0,-150359.0,117824.0,350.0,0.0,0.0,0.0,977.597,-19.533,14.68,0.566,-0.25
89332.0,-150348.0,117831.0,350.0,0.0,0.0,0.0,978.333,-17.305,12.25,0.63,-0.08
89333.0,-150310.0,117867.0,350.0,0.0,0.0,0.0,978.767,-17.447,9.92,0.557,-0.18
89333.0,-150307.0,117868.0,350.0,0.0,0.0,0.0,978.601,-17.925,10.52,0.406,-0.11
89334.0,-150255.0,117917.0,350.0,0.0,0.0,0.0,978.632,-15.31,10.78,0.502,-0.18
89335.0,-150197.0,117973.0,350.0,0.0,0.0,0.0,978.572,-15.405,10.61,0.43,-0.2
89335.0,-150157.0,118011.0,350.0,0.0,0.0,0.0,978.516,-15.924,10.66,0.5,-0.15
89335.0,-150112.0,118053.0,350.0,0.0,0.0,0.0,978.44,-15.742,10.65,0.658,-0.15
89336.0,-150067.0,118094.0,350.0,0.0,0.0,0.0,978.402,-15.861,10.67,0.561,-0.17
89335.0,-150070.0,118088.0,350.0,0.0,0.0,0.0,978.314,-15.766,13.04,0.632,-0.02
89334.0,-150106.0,118049.0,356.0,0.0,0.0,0.0,978.237,-15.716,15.38,0.562,0.06
89333.0,-150141.0,118012.0,356.0,0.0,0.0,0.0,978.268,-15.691,14.8,0.547,0.07
89332.0,-150170.0,117980.0,356.0,0.0,0.0,0.0,978.274,-15.648,14.48,0.595,0.06
89332.0,-150150.0,117996.0,356.0,0.0,0.0,0.0,978.239,-15.605,14.66,0.591,-0.16
89332.0,-150117.0,118025.0,356.0,0.0,0.0,0.0,978.195,-15.574,14.61,0.575,-0.22
89332.0,-150090.0,118050.0,356.0,0.0,0.0,0.0,978.165,-15.566,14.62,0.583,-0.2
89332.0,-150065.0,118074.0,356.0,0.0,0.0,0.0,978.184,-15.575,14.6,0.433,-0.19
89331.0,-150057.0,118079.0,356.0,0.0,0.0,0.0,978.262,-15.595,14.62,0.484,-0.11
89331.0,-150042.0,118092.0,362.0,0.0,0.0,0.0,978.377,-15.631,14.61,0.426,-0.15
89331.0,-150018.0,118113.0,362.0,0.0,0.0,0.0,978.491,-15.681,14.61,0.505,-0.19
89332.0,-149999.0,118129.0,362.0,0.0,0.0,0.0,978.57,-15.741,14.61,0.655,-0.17
89331.0,-149983.0,118143.0,362.0,0.0,0.0,0.0,978.602,-15.792,14.61,0.565,-0.16
89331.0,-149967.0,118156.0,362.0,0.0,0.0,0.0,980.967,-15.836,14.66,0.633,-0.16
89331.0,-149921.0,118198.0,362.0,0.0,0.0,0.0,980.874,-15.813,14.66,0.559,-0.16
89330.0,-149884.0,118232.0,362.0,0.0,0.0,0.0,980.289,-15.749,14.65,0.548,-0.16
89330.0,-149787.0,118326.0,362.0,0.0,0.0,0.0,980.535,-15.764,12.26,0.597,-0.17
89330.0,-149718.0,118393.0,368.0,0.0,0.0,0.0,978.048,-15.675,12.27,0.59,-0.16
89330.0,-149656.0,118452.0,368.0,0.0,0.0,0.0,980.355,-15.553,15.24,0.575,-0.16
89330.0,-149630.0,118475.0,368.0,0.0,0.0,0.0,980.803,-17.901,15.01,0.583,-0.16
89330.0,-149659.0,118443.0,368.0,0.0,0.0,0.0,977.654,-20.19,14.52,0.577,-0.16
89330.0,-149667.0,118433.0,368.0,0.0,0.0,0.0,980.396,-19.654,14.78,0.579,-0.16
89329.0,-149715.0,118381.0,368.0,0.0,0.0,0.0,983.162,-19.412,14.77,0.584,-0.16
89330.0,-149741.0,118352.0,368.0,0.0,0.0,0.0,982.408,-19.603,14.79,0.581,-0.16
89330.0,-149777.0,118314.0,368.0,0.0,0.0,0.0,982.163,-19.586,14.75,0.579,-0.16
89330.0,-149820.0,118267.0,398.0,0.0,0.0,0.0,982.229,-19.528,17.16,0.581,-0.16
89330.0,-149861.0,118224.0,398.0,0.0,0.0,0.0,979.861,-19.499,17.06,0.58,-0.16
89330.0,-149860.0,118223.0,398.0,0.0,0.0,0.0,977.641,-17.253,14.04,0.581,-0.16
89330.0,-149832.0,118247.0,398.0,0.0,0.0,0.0,978.211,-14.948,14.29,0.581,-0.16
89330.0,-149812.0,118264.0,398.0,0.0,0.0,0.0,978.516,-15.501,14.78,0.58,-0.16
89330.0,-149796.0,118277.0,398.0,0.0,0.0,0.0,978.34,-15.803,14.57,0.58,-0.16
89330.0,-149777.0,118293.0,398.0,0.0,0.0,0.0,978.376,-15.626,14.62,0.581,-0.16
89330.0,-149759.0,118309.0,398.0,0.0,0.0,0.0,978.368,-15.664,14.6,0.581,-0.16
89330.0,-149677.0,118384.0,398.0,0.0,0.0,0.0,978.523,-15.84,9.89,0.436,-0.16
89331.0,-149633.0,118427.0,398.0,0.0,0.0,0.0,978.507,-15.808,10.47,0.486,-0.16
89332.0,-149591.0,118467.0,398.0,0.0,0.0,0.0,978.501,-15.812,10.79,0.422,-0.16
89332.0,-149549.0,118508.0,398.0,0.0,0.0,0.0,978.504,-15.849,10.61,0.36,-0.16
89332.0,-149522.0,118532.0,398.0,0.0,0.0,0.0,978.426,-15.799,13.05,0.561,-0.16
89332.0,-149512.0,118539.0,398.0,0.0,0.0,0.0,978.351,-15.763,15.37,0.406,-0.16
89332.0,-149482.0,118567.0,398.0,0.0,0.0,0.0,978.449,-15.911,12.41,0.557,-0.16
89333.0,-149435.0,118611.0,360.0,0.0,0.0,0.0,978.537,-16.021,9.76,0.489,-0.16
89333.0,-149409.0,118635.0,360.0,0.0,0.0,0.0,978.433,-15.889,12.91,0.436,-0.16
89333.0,-149400.0,118641.0,360.0,0.0,0.0,0.0,978.346,-15.75,15.51,0.491,-0.16
89333.0,-149385.0,118654.0,360.0,0.0,0.0,0.0,978.371,-15.721,14.76,0.493,-0.16
89333.0,-149395.0,118641.0,360.0,0.0,0.0,0.0,978.367,-18.025,14.52,0.618,-0.16
89333.0,-149419.0,118615.0,360.0,0.0,0.0,0.0,978.426,-20.358,12.35,0.583,-0.16
89335.0,-149418.0,118611.0,360.0,0.0,0.0,0.0,978.508,-19.833,9.98,0.784,-0.16
89335.0,-149433.0,118592.0,360.0,0.0,0.0,0.0,978.411,-19.39,12.94,0.647,-0.16
89335.0,-149496.0,118524.0,358.0,0.0,0.0,0.0,978.348,-19.355,14.83,0.574,-0.16
89335.0,-149524.0,118494.0,358.0,0.0,0.0,0.0,978.357,-19.34,14.56,0.353,-0.16
89335.0,-149552.0,118464.0,358.0,0.0,0.0,0.0,978.352,-19.32,14.72,0.52,-0.16
89335.0,-149579.0,118432.0,358.0,0.0,0.0,0.0,978.353,-19.389,14.7,0.606,-0.16
89335.0,-149625.0,118386.0,358.0,0.0,0.0,0.0,978.274,-19.397,17.08,0.436,-0.16
89335.0,-149686.0,118321.0,358.0,0.0,0.0,0.0,978.197,-19.417,19.4,0.57,-0.16
89334.0,-149717.0,118289.0,358.0,0.0,0.0,0.0,978.229,-17.181,18.79,0.387,-0.16
89333.0,-149718.0,118286.0,354.0,0.0,0.0,0.0,978.253,-14.948,18.43,0.317,-0.16
89332.0,-149727.0,118274.0,354.0,0.0,0.0,0.0,978.244,-15.538,18.61,0.582,-0.16
89332.0,-149740.0,118259.0,354.0,0.0,0.0,0.0,978.243,-15.842,18.57,0.413,-0.16
89330.0,-149759.0,118234.0,354.0,0.0,0.0,0.0,978.244,-15.684,18.56,0.639,-0.16
89330.0,-149769.0,118222.0,354.0,0.0,0.0,0.0,978.244,-15.626,18.57,0.524,-0.16
89329.0,-149777.0,118210.0,354.0,0.0,0.0,0.0,978.244,-15.576,18.57,0.647,-0.16
89329.0,-149812.0,118172.0,354.0,0.0,0.0,0.0,978.231,-17.826,18.61,0.574,-0.16
89327.0,-149901.0,118077.0,350.0,0.0,0.0,0.0,978.234,-17.064,18.6,0.453,-0.16
89327.0,-149925.0,118051.0,350.0,0.0,0.0,0.0,980.61,-16.807,18.64,0.493,-0.16
89327.0,-149987.0,117988.0,350.0,0.0,0.0,0.0,982.913,-19.884,18.75,0.414,-0.16
89327.0,-150044.0,117929.0,350.0,0.0,0.0,0.0,979.955,-19.595,18.68,0.511,-0.16
89326.0,-150094.0,117874.0,350.0,0.0,0.0,0.0,979.706,-19.22,18.67,0.798,-0.16
89326.0,-150149.0,117816.0,350.0,0.0,0.0,0.0,980.405,-19.505,18.69,0.655,-0.16
89326.0,-150187.0,117775.0,350.0,0.0,0.0,0.0,977.84,-19.577,16.25,0.796,-0.16
89327.0,-150181.0,117777.0,346.0,0.0,0.0,0.0,978.039,-19.674,13.91,0.635,-0.3
89327.0,-150176.0,117779.0,346.0,0.0,0.0,0.0,980.829,-17.139,16.9,0.47,-0.25
89327.0,-150175.0,117777.0,346.0,0.0,0.0,0.0,982.864,-17.04,19.58,0.614,-0.31
89327.0,-150205.0,117745.0,346.0,0.0,0.0,0.0,980.085,-19.924,16.44,0.537,-0.23
89326.0,-150273.0,117673.0,346.0,0.0,0.0,0.0,977.537,-19.689,13.78,0.597,0.04
89326.0,-150328.0,117615.0,346.0,0.0,0.0,0.0,980.637,-19.177,16.97,0.617,-0.08
89325.0,-150415.0,117526.0,346.0,0.0,0.0,0.0,983.199,-19.468,17.25,0.561,0.03
89325.0,-150450.0,117487.0,346.0,0.0,0.0,0.0,982.506,-19.593,14.14,0.569,-0.11
89325.0,-150415.0,117517.0,345.0,0.0,0.0,0.0,982.2,-17.308,14.89,0.578,-0.13
89325.0,-150346.0,117583.0,345.0,0.0,0.0,0.0,979.749,-15.031,14.59,0.582,-0.2
89324.0,-150329.0,117597.0,345.0,0.0,0.0,0.0,977.328,-15.496,16.99,0.583,-0.14
89323.0,-150364.0,117559.0,345.0,0.0,0.0,0.0,977.87,-15.691,19.32,0.577,-0.13
89323.0,-150364.0,117556.0,345.0,0.0,0.0,0.0,978.288,-15.526,18.77,0.581,-0.18
89323.0,-150363.0,117555.0,345.0,0.0,0.0,0.0,978.281,-15.637,16.05,0.582,-0.17
89322.0,-150351.0,117564.0,345.0,0.0,0.0,0.0,978.378,-15.597,16.27,0.58,-0.15
89321.0,-150353.0,117558.0,343.0,0.0,0.0,0.0,978.313,-15.494,19.16,0.581,-0.16
89321.0,-150364.0,117545.0,343.0,0.0,0.0,0.0,978.352,-15.483,18.88,0.581,-0.16
89320.0,-150371.0,117535.0,343.0,0.0,0.0,0.0,978.347,-15.503,18.39,0.58,-0.16
89320.0,-150359.0,117543.0,343.0,0.0,0.0,0.0,978.398,-15.59,16.23,0.581,-0.16
89320.0,-150335.0,117564.0,343.0,0.0,0.0,0.0,978.452,-15.68,13.84,0.581,-0.16
89319.0,-150330.0,117567.0,343.0,0.0,0.0,0.0,978.319,-15.58,16.84,0.58,-0.16
89319.0,-150341.0,117553.0,343.0,0.0,0.0,0.0,978.21,-15.491,19.45,0.581,-0.16
89318.0,-150349.0,117542.0,343.0,0.0,0.0,0.0,980.594,-15.545,18.75,0.581,-0.16
89317.0,-150355.0,117533.0,342.0,0.0,0.0,0.0,982.915,-15.579,18.54,0.581,-0.16
89317.0,-150362.0,117524.0,342.0,0.0,0.0,0.0,982.325,-15.568,18.68,0.581,-0.16
89316.0,-150369.0,117514.0,342.0,0.0,0.0,0.0,982.026,-15.565,18.65,0.581,-0.16
89315.0,-150375.0,117504.0,342.0,0.0,0.0,0.0,982.202,-15.565,18.65,0.581,-0.16
89315.0,-150354.0,117523.0,342.0,0.0,0.0,0.0,982.181,-13.217,18.58,0.581,-0.16
89314.0,-150347.0,117524.0,342.0,0.0,0.0,0.0,982.167,-16.137,18.65,0.581,-0.16
89313.0,-150357.0,117511.0,342.0,0.0,0.0,0.0,982.185,-15.86,18.65,0.581,-0.16
89311.0,-150361.0,117503.0,345.0,0.0,0.0,0.0,982.185,-15.391,18.64,0.581,-0.16
89311.0,-150369.0,117493.0,345.0,0.0,0.0,0.0,982.179,-15.601,18.64,0.581,-0.16
89311.0,-150402.0,117457.0,345.0,0.0,0.0,0.0,979.793,-17.872,18.64,0.581,-0.16
89310.0,-150436.0,117421.0,345.0,0.0,0.0,0.0,979.843,-17.848,18.65,0.581,-0.16
89309.0,-150435.0,117419.0,345.0,0.0,0.0,0.0,982.764,-14.973,18.64,0.581,-0.16
89309.0,-150437.0,117413.0,345.0,0.0,0.0,0.0,980.106,-15.243,18.6,0.581,-0.16
89308.0,-150444.0,117404.0,345.0,0.0,0.0,0.0,977.308,-15.685,18.56,0.581,-0.16
89308.0,-150434.0,117410.0,345.0,0.0,0.0,0.0,978.187,-15.563,16.18,0.581,-0.16
89308.0,-150411.0,117431.0,342.0,0.0,0.0,0.0,978.515,-15.708,13.85,0.581,-0.16
89308.0,-150390.0,117449.0,342.0,0.0,0.0,0.0,978.356,-15.656,14.43,0.581,-0.16
89308.0,-150330.0,117506.0,342.0,0.0,0.0,0.0,978.45,-13.418,12.3,0.581,-0.16
89308.0,-150226.0,117607.0,342.0,0.0,0.0,0.0,978.554,-11.2,9.75,0.581,-0.16
89309.0,-150134.0,117696.0,342.0,0.0,0.0,0.0,978.549,-11.754,10.4,0.581,-0.16
89309.0,-150075.0,117753.0,342.0,0.0,0.0,0.0,978.503,-14.398,10.75,0.581,-0.16
89310.0,-150040.0,117785.0,342.0,0.0,0.0,0.0,978.504,-16.524,10.64,0.581,-0.16
89311.0,-149970.0,117852.0,342.0,0.0,0.0,0.0,978.508,-15.989,10.66,0.581,-0.3
89311.0,-149921.0,117898.0,339.0,0.0,0.0,0.0,978.429,-15.592,13.03,0.581,-0.25
89311.0,-149877.0,117939.0,339.0,0.0,0.0,0.0,978.361,-15.69,15.4,0.581,-0.31
89311.0,-149845.0,117967.0,339.0,0.0,0.0,0.0,978.405,-15.655,14.79,0.581,-0.23
89312.0,-149842.0,117968.0,339.0,0.0,0.0,0.0,978.451,-15.678,14.48,0.581,-0.09
89312.0,-149821.0,117986.0,339.0,0.0,0.0,0.0,978.481,-15.658,14.66,0.581,-0.17
89311.0,-149815.0,117990.0,339.0,0.0,0.0,0.0,978.496,-15.67,14.61,0.436,-0.11
89312.0,-149779.0,118024.0,339.0,0.0,0.0,0.0,978.551,-15.757,12.23,0.486,-0.18
89313.0,-149725.0,118076.0,339.0,0.0,0.0,0.0,978.576,-15.849,9.88,0.422,-0.19
89314.0,-149655.0,118143.0,338.0,0.0,0.0,0.0,978.49,-15.855,10.48,0.505,-0.28
89314.0,-149595.0,118198.0,338.0,0.0,0.0,0.0,978.427,-15.88,10.79,0.801,-0.24
89315.0,-149520.0,118271.0,338.0,0.0,0.0,0.0,978.41,-15.921,10.61,0.659,-0.32
89317.0,-149462.0,118325.0,338.0,0.0,0.0,0.0,978.425,-15.924,10.66,0.792,-0.23
89317.0,-149448.0,118336.0,338.0,0.0,0.0,0.0,978.538,-18.308,8.31,0.635,-0.09
89319.0,-149398.0,118383.0,338.0,0.0,0.0,0.0,978.674,-18.246,5.99,0.472,-0.18
89319.0,-149332.0,118447.0,338.0,0.0,0.0,0.0,978.715,-15.25,6.51,0.613,-0.1
89319.0,-149253.0,118521.0,338.0,0.0,0.0,0.0,976.336,-15.423,6.78,0.538,-0.18
89321.0,-149192.0,118580.0,339.0,0.0,0.0,0.0,976.284,-15.801,9.01,0.597,-0.19
89321.0,-149156.0,118614.0,339.0,0.0,0.0,0.0,976.69,-15.557,11.39,0.616,-0.14
89321.0,-149115.0,118651.0,339.0,0.0,0.0,0.0,976.435,-15.709,10.79,0.561,-0.15
89322.0,-149071.0,118692.0,339.0,0.0,0.0,0.0,978.846,-15.797,10.55,0.569,-0.16
89322.0,-149030.0,118730.0,339.0,0.0,0.0,0.0,976.386,-15.864,10.66,0.59,-0.16
89323.0,-148959.0,118799.0,339.0,0.0,0.0,0.0,975.916,-15.884,10.61,0.578,-0.16
89323.0,-148915.0,118840.0,339.0,0.0,0.0,0.0,979.0,-15.838,13.07,0.582,-0.16
89323.0,-148844.0,118908.0,339.0,0.0,0.0,0.0,978.58,-15.75,15.38,0.583,-0.3
89323.0,-148795.0,118954.0,339.0,0.0,0.0,0.0,978.197,-15.739,14.79,0.577,-0.25
89323.0,-148760.0,118986.0,339.0,0.0,0.0,0.0,978.42,-15.722,14.49,0.726,-0.31
89324.0,-148725.0,119017.0,339.0,0.0,0.0,0.0,976.036,-15.662,14.61,0.677,-0.23
89324.0,-148735.0,119004.0,339.0,0.0,0.0,0.0,973.796,-15.607,14.52,0.739,-0.09
89324.0,-148694.0,119042.0,339.0,0.0,0.0,0.0,974.457,-15.658,12.15,0.656,-0.17
89323.0,-148620.0,119111.0,339.0,0.0,0.0,0.0,974.872,-15.701,9.81,0.505,-0.11
89325.0,-148539.0,119191.0,339.0,0.0,0.0,0.0,974.735,-15.728,8.02,0.596,-0.18
89326.0,-148471.0,119257.0,339.0,0.0,0.0,0.0,974.684,-18.053,8.42,0.528,-0.19
89326.0,-148445.0,119279.0,341.0,0.0,0.0,0.0,974.518,-17.931,11.17,0.602,-0.14
89326.0,-148443.0,119277.0,341.0,0.0,0.0,0.0,976.86,-17.5,10.97,0.614,-0.15
89327.0,-148448.0,119269.0,341.0,0.0,0.0,0.0,979.132,-20.184,10.58,0.564,-0.16
89327.0,-148442.0,119273.0,341.0,0.0,0.0,0.0,978.548,-17.776,10.75,0.571,-0.16
89328.0,-148414.0,119298.0,341.0,0.0,0.0,0.0,978.263,-17.353,10.67,0.586,-0.16
89328.0,-148438.0,119271.0,341.0,0.0,0.0,0.0,978.356,-20.365,13.15,0.578,-0.16
89329.0,-148456.0,119251.0,341.0,0.0,0.0,0.0,978.284,-17.575,15.41,0.584,-0.16
89329.0,-148451.0,119253.0,341.0,0.0,0.0,0.0,978.282,-14.763,17.17,0.582,-0.16
89328.0,-148465.0,119236.0,342.0,0.0,0.0,0.0,980.579,-17.777,19.3,0.577,-0.16
89327.0,-148519.0,119180.0,342.0,0.0,0.0,0.0,980.556,-20.313,18.93,0.436,-0.16
89327.0,-148546.0,119151.0,342.0,0.0,0.0,0.0,977.67,-19.56,18.51,0.487,-0.16
89326.0,-148587.0,119107.0,342.0,0.0,0.0,0.0,977.943,-19.25,18.69,0.421,-0.16
89326.0,-148662.0,119029.0,342.0,0.0,0.0,0.0,978.416,-19.452,18.64,0.505,-0.16
89325.0,-148718.0,118970.0,342.0,0.0,0.0,0.0,980.568,-19.484,18.7,0.656,-0.16
89325.0,-148787.0,118898.0,342.0,0.0,0.0,0.0,980.559,-19.514,18.68,0.564,-0.16
89324.0,-148841.0,118840.0,342.0,0.0,0.0,0.0,979.993,-19.522,18.68,0.778,-0.16
89324.0,-148893.0,118785.0,348.0,0.0,0.0,0.0,980.246,-19.524,18.69,0.654,-0.16
89324.0,-148953.0,118721.0,348.0,0.0,0.0,0.0,977.794,-19.436,18.64,0.706,-0.16
89323.0,-149011.0,118660.0,348.0,0.0,0.0,0.0,977.861,-19.348,18.64,0.673,-0.16
89323.0,-149066.0,118603.0,348.0,0.0,0.0,0.0,978.397,-19.264,18.65,0.515,-0.16
89323.0,-149120.0,118546.0,348.0,0.0,0.0,0.0,978.154,-19.191,18.64,0.592,-0.16
89322.0,-149173.0,118490.0,348.0,0.0,0.0,0.0,978.243,-19.169,18.65,0.53,-0.16
89322.0,-149226.0,118434.0,348.0,0.0,0.0,0.0,978.201,-19.202,18.65,0.744,-0.16
89321.0,-149280.0,118375.0,348.0,0.0,0.0,0.0,978.234,-19.278,18.65,0.707,-0.16
89321.0,-149335.0,118317.0,351.0,0.0,0.0,0.0,978.225,-19.364,18.65,0.727,-0.16
89321.0,-149391.0,118258.0,351.0,0.0,0.0,0.0,978.219,-19.426,18.65,0.647,-0.16
89321.0,-149431.0,118215.0,351.0,0.0,0.0,0.0,978.306,-19.533,16.26,0.509,-0.16
89320.0,-149444.0,118199.0,351.0,0.0,0.0,0.0,980.687,-17.196,16.31,0.595,-0.16
89320.0,-149434.0,118206.0,351.0,0.0,0.0,0.0,983.003,-14.888,16.84,0.531,-0.16
89320.0,-149412.0,118225.0,351.0,0.0,0.0,0.0,980.126,-15.534,14.18,0.604,-0.16
89319.0,-149425.0,118210.0,351.0,0.0,0.0,0.0,977.495,-15.827,14.25,0.61,-0.02
89319.0,-149429.0,118202.0,351.0,0.0,0.0,0.0,978.23,-15.678,14.78,0.564,-0.07
89318.0,-149446.0,118183.0,346.0,0.0,0.0,0.0,980.863,-15.778,14.61,0.572,-0.0
89318.0,-149447.0,118179.0,346.0,0.0,0.0,0.0,980.625,-15.773,14.68,0.586,-0.08
89317.0,-149461.0,118162.0,346.0,0.0,0.0,0.0,980.005,-15.696,17.01,0.578,-0.09
89316.0,-149484.0,118136.0,346.0,0.0,0.0,0.0,982.574,-15.692,17.04,0.584,-0.05
89316.0,-149487.0,118131.0,346.0,0.0,0.0,0.0,982.552,-15.781,14.1,0.582,-0.05
89316.0,-149517.0,118097.0,346.0,0.0,0.0,0.0,981.993,-18.093,14.42,0.577,-0.06
89316.0,-149548.0,118064.0,346.0,0.0,0.0,0.0,982.209,-20.345,14.95,0.581,-0.2
89316.0,-149552.0,118056.0,346.0,0.0,0.0,0.0,982.195,-17.414,14.68,0.582,-0.16
89316.0,-149513.0,118093.0,346.0,0.0,0.0,0.0,982.288,-14.809,14.68,0.58,-0.22
89315.0,-149501.0,118102.0,346.0,0.0,0.0,0.0,982.306,-15.55,14.67,0.436,-0.13
89315.0,-149493.0,118108.0,346.0,0.0,0.0,0.0,982.378,-15.81,14.7,0.486,-0.13
89315.0,-149475.0,118124.0,346.0,0.0,0.0,0.0,982.438,-15.668,14.68,0.422,-0.17
89315.0,-149458.0,118139.0,346.0,0.0,0.0,0.0,982.46,-15.724,14.68,0.505,-0.16
89315.0,-149459.0,118136.0,346.0,0.0,0.0,0.0,982.387,-15.684,17.08,0.511,-0.16
89314.0,-149475.0,118116.0,346.0,0.0,0.0,0.0,982.287,-15.657,19.41,0.469,-0.16
89314.0,-149489.0,118100.0,346.0,0.0,0.0,0.0,982.271,-15.687,18.82,0.474,-0.15
89313.0,-149500.0,118086.0,350.0,0.0,0.0,0.0,982.241,-15.707,18.52,0.483,-0.16
89312.0,-149510.0,118073.0,350.0,0.0,0.0,0.0,982.198,-15.686,18.69,0.623,-0.16
89311.0,-149521.0,118060.0,350.0,0.0,0.0,0.0,982.169,-15.651,18.64,0.58,-0.16
89311.0,-149502.0,118075.0,350.0,0.0,0.0,0.0,982.149,-15.607,18.65,0.643,-0.16
89309.0,-149479.0,118095.0,350.0,0.0,0.0,0.0,979.701,-13.095,20.93,0.554,-0.16
89308.0,-149417.0,118156.0,350.0,0.0,0.0,0.0,977.395,-10.717,20.8,0.55,-0.16
89307.0,-149370.0,118200.0,350.0,0.0,0.0,0.0,978.147,-13.784,15.55,0.594,-0.16
89307.0,-149356.0,118210.0,350.0,0.0,0.0,0.0,978.436,-16.336,15.94,0.588,-0.16
89307.0,-149332.0,118231.0,349.0,0.0,0.0,0.0,978.248,-15.55,16.94,0.579,-0.16
89307.0,-149289.0,118272.0,349.0,0.0,0.0,0.0,978.395,-15.419,14.1,0.583,-0.16
89306.0,-149250.0,118307.0,349.0,0.0,0.0,0.0,978.385,-15.607,14.27,0.576,-0.16
89306.0,-149243.0,118312.0,349.0,0.0,0.0,0.0,978.389,-15.605,14.77,0.579,-0.16
89306.0,-149227.0,118325.0,349.0,0.0,0.0,0.0,978.382,-15.647,14.58,0.584,-0.16
89306.0,-149223.0,118326.0,349.0,0.0,0.0,0.0,978.381,-15.662,14.63,0.581,-0.16
89306.0,-149230.0,118316.0,349.0,0.0,0.0,0.0,978.37,-18.047,14.63,0.58,-0.16
89306.0,-149234.0,118309.0,349.0,0.0,0.0,0.0,978.363,-17.995,14.68,0.581,-0.16
89306.0,-149215.0,118325.0,347.0,0.0,0.0,0.0,978.379,-15.122,14.6,0.58,-0.16
89306.0,-149196.0,118341.0,347.0,0.0,0.0,0.0,976.001,-15.374,14.56,0.581,-0.16
89306.0,-149182.0,118352.0,347.0,0.0,0.0,0.0,976.05,-15.83,14.58,0.581,-0.16
89306.0,-149166.0,118366.0,347.0,0.0,0.0,0.0,978.958,-15.637,14.62,0.58,-0.16
89306.0,-149149.0,118379.0,347.0,0.0,0.0,0.0,978.678,-15.679,14.62,0.58,-0.16
89305.0,-149133.0,118393.0,347.0,0.0,0.0,0.0,975.831,-15.619,14.57,0.581,-0.16
89305.0,-149117.0,118406.0,347.0,0.0,0.0,0.0,976.097,-15.65,14.57,0.581,-0.16
89305.0,-149117.0,118403.0,347.0,0.0,0.0,0.0,978.872,-15.573,17.01,0.581,-0.16
89305.0,-149132.0,118385.0,346.0,0.0,0.0,0.0,980.917,-15.509,19.39,0.581,-0.16
89303.0,-149143.0,118370.0,346.0,0.0,0.0,0.0,982.751,-15.557,18.83,0.581,-0.16
89303.0,-149153.0,118358.0,346.0,0.0,0.0,0.0,982.405,-15.563,18.52,0.581,-0.16
89302.0,-149164.0,118344.0,346.0,0.0,0.0,0.0,982.042,-15.557,18.68,0.581,-0.16
89302.0,-149175.0,118330.0,346.0,0.0,0.0,0.0,982.231,-15.563,18.64,0.581,-0.16
89301.0,-149186.0,118317.0,346.0,0.0,0.0,0.0,982.16,-15.562,18.65,0.581,-0.16
89300.0,-149196.0,118303.0,346.0,0.0,0.0,0.0,982.186,-15.563,18.63,0.581,-0.16
89300.0,-149191.0,118306.0,346.0,0.0,0.0,0.0,979.873,-15.627,16.21,0.581,-0.16
89300.0,-149185.0,118308.0,347.0,0.0,0.0,0.0,977.557,-15.603,16.22,0.581,-0.16
89299.0,-149199.0,118292.0,347.0,0.0,0.0,0.0,980.423,-15.523,19.2,0.581,-0.16
89299.0,-149211.0,118277.0,347.0,0.0,0.0,0.0,983.052,-15.557,18.97,0.581,-0.16
89298.0,-149221.0,118265.0,347.0,0.0,0.0,0.0,982.317,-15.567,18.48,0.581,-0.16
89297.0,-149231.0,118250.0,347.0,0.0,0.0,0.0,982.049,-15.557,18.68,0.581,-0.16
89297.0,-149242.0,118238.0,347.0,0.0,0.0,0.0,982.209,-15.56,18.63,0.581,-0.16
89296.0,-149294.0,118182.0,347.0,0.0,0.0,0.0,982.09,-17.817,21.1,0.581,-0.16
89296.0,-149387.0,118087.0,347.0,0.0,0.0,0.0,981.996,-20.026,23.45,0.581,-0.16
89294.0,-149453.0,118016.0,347.0,0.0,0.0,0.0,982.083,-19.555,20.47,0.581,-0.16
89295.0,-149501.0,117967.0,347.0,0.0,0.0,0.0,982.189,-19.35,17.83,0.581,-0.16
89295.0,-149554.0,117911.0,347.0,0.0,0.0,0.0,982.157,-19.49,18.58,0.581,-0.16
89293.0,-149579.0,117881.0,347.0,0.0,0.0,0.0,982.146,-19.437,18.85,0.581,-0.3
89294.0,-149614.0,117844.0,347.0,0.0,0.0,0.0,982.157,-19.452,18.69,0.581,-0.25
89295.0,-149663.0,117792.0,347.0,0.0,0.0,0.0,982.151,-21.779,18.76,0.581,-0.31
89295.0,-149727.0,117726.0,347.0,0.0,0.0,0.0,979.8,-21.718,18.72,0.581,-0.23
89295.0,-149815.0,117636.0,347.0,0.0,0.0,0.0,977.519,-21.167,18.68,0.581,-0.08
89295.0,-149913.0,117534.0,346.0,0.0,0.0,0.0,978.126,-23.74,18.72,0.581,-0.17
89295.0,-149997.0,117448.0,346.0,0.0,0.0,0.0,978.458,-21.289,18.69,0.581,-0.1
89293.0,-150047.0,117394.0,346.0,0.0,0.0,0.0,978.362,-18.569,16.24,0.581,-0.04
89294.0,-150080.0,117358.0,346.0,0.0,0.0,0.0,978.423,-19.453,13.92,0.581,-0.1
89293.0,-150141.0,117294.0,346.0,0.0,0.0,0.0,978.317,-19.662,14.51,0.581,0.01
89293.0,-150170.0,117262.0,346.0,0.0,0.0,0.0,978.325,-19.613,12.43,0.581,-0.07
89295.0,-150152.0,117277.0,346.0,0.0,0.0,0.0,978.325,-19.713,9.92,0.581,-0.23
89296.0,-150172.0,117255.0,346.0,0.0,0.0,0.0,978.186,-19.606,12.95,0.581,-0.14
89296.0,-150194.0,117230.0,346.0,0.0,0.0,0.0,980.474,-19.555,15.62,0.581,-0.21
89295.0,-150184.0,117236.0,346.0,0.0,0.0,0.0,980.581,-17.3,12.45,0.581,-0.14
89296.0,-150121.0,117298.0,346.0,0.0,0.0,0.0,977.78,-14.996,12.12,0.581,-0.12
89296.0,-150082.0,117333.0,346.0,0.0,0.0,0.0,978.051,-15.468,15.23,0.581,-0.17
89296.0,-150035.0,117378.0,346.0,0.0,0.0,0.0,978.612,-15.781,14.94,0.581,-0.17
89295.0,-150002.0,117408.0,346.0,0.0,0.0,0.0,978.466,-15.632,14.44,0.581,-0.15
89295.0,-149999.0,117408.0,346.0,0.0,0.0,0.0,978.528,-15.668,14.65,0.581,-0.16
89295.0,-149979.0,117425.0,346.0,0.0,0.0,0.0,978.49,-15.659,14.61,0.436,-0.15
89295.0,-149973.0,117429.0,346.0,0.0,0.0,0.0,978.492,-15.678,14.63,0.486,-0.15
89295.0,-149951.0,117449.0,346.0,0.0,0.0,0.0,978.439,-15.676,14.6,0.422,-0.16
89295.0,-149969.0,117428.0,346.0,0.0,0.0,0.0,978.307,-17.961,17.05,0.505,-0.15
89295.0,-150023.0,117371.0,346.0,0.0,0.0,0.0,978.272,-20.297,17.04,0.656,-0.15
89295.0,-150052.0,117339.0,346.0,0.0,0.0,0.0,978.346,-19.858,14.1,0.564,-0.15
89295.0,-150049.0,117339.0,346.0,0.0,0.0,0.0,978.343,-17.215,14.34,0.633,-0.15
89296.0,-150053.0,117332.0,346.0,0.0,0.0,0.0,978.326,-17.394,14.82,0.559,-0.15
89296.0,-150086.0,117297.0,346.0,0.0,0.0,0.0,978.322,-20.174,14.66,0.547,-0.15
89296.0,-150116.0,117264.0,347.0,0.0,0.0,0.0,978.332,-19.837,14.71,0.597,-0.15
89295.0,-150140.0,117235.0,347.0,0.0,0.0,0.0,978.345,-19.295,14.67,0.59,-0.15
89296.0,-150155.0,117219.0,347.0,0.0,0.0,0.0,978.286,-17.052,17.05,0.575,-0.15
89295.0,-150182.0,117189.0,347.0,0.0,0.0,0.0,978.216,-16.957,19.37,0.583,-0.15
89295.0,-150213.0,117155.0,347.0,0.0,0.0,0.0,978.235,-17.54,18.79,0.577,-0.15
89294.0,-150227.0,117138.0,347.0,0.0,0.0,0.0,980.557,-14.913,20.87,0.579,-0.15
89292.0,-150258.0,117104.0,347.0,0.0,0.0,0.0,980.417,-14.979,23.37,0.584,-0.15
89291.0,-150276.0,117083.0,347.0,0.0,0.0,0.0,977.606,-15.604,20.31,0.581,-0.15
89291.0,-150275.0,117081.0,347.0,0.0,0.0,0.0,977.972,-15.502,17.67,0.579,-0.15
89290.0,-150281.0,117073.0,347.0,0.0,0.0,0.0,978.418,-15.571,18.43,0.581,-0.15
89290.0,-150287.0,117064.0,347.0,0.0,0.0,0.0,978.195,-15.525,18.7,0.58,-0.15
89290.0,-150256.0,117089.0,347.0,0.0,0.0,0.0,978.38,-15.718,13.83,0.581,-0.15
89290.0,-150237.0,117106.0,347.0,0.0,0.0,0.0,978.393,-15.684,14.43,0.58,-0.15
89290.0,-150219.0,117120.0,347.0,0.0,0.0,0.0,978.365,-15.673,14.75,0.58,-0.15
89290.0,-150201.0,117135.0,347.0,0.0,0.0,0.0,980.746,-15.69,14.61,0.581,-0.15
89289.0,-150199.0,117135.0,347.0,0.0,0.0,0.0,982.994,-15.618,17.09,0.581,-0.15
89288.0,-150182.0,117149.0,347.0,0.0,0.0,0.0,982.327,-15.527,19.41,0.581,-0.15
89287.0,-150156.0,117170.0,347.0,0.0,0.0,0.0,982.122,-15.631,16.44,0.581,-0.15
89287.0,-150103.0,117222.0,347.0,0.0,0.0,0.0,982.379,-15.73,13.79,0.581,-0.15
89287.0,-150071.0,117251.0,347.0,0.0,0.0,0.0,982.309,-15.704,14.55,0.581,-0.15
89287.0,-150069.0,117249.0,347.0,0.0,0.0,0.0,982.31,-15.697,14.82,0.581,-0.15
89287.0,-150064.0,117252.0,347.0,0.0,0.0,0.0,982.218,-15.618,17.04,0.436,-0.15
89287.0,-150072.0,117241.0,347.0,0.0,0.0,0.0,982.233,-15.622,17.01,0.486,-0.15
89286.0,-150049.0,117262.0,347.0,0.0,0.0,0.0,982.327,-15.739,14.09,0.422,-0.15
89287.0,-150024.0,117285.0,347.0,0.0,0.0,0.0,979.939,-15.731,14.35,0.505,-0.15
89287.0,-150012.0,117295.0,347.0,0.0,0.0,0.0,979.981,-15.753,14.81,0.656,-0.15
89286.0,-150089.0,117211.0,347.0,0.0,0.0,0.0,980.209,-20.447,14.75,0.633,-0.01
89286.0,-150152.0,117145.0,347.0,0.0,0.0,0.0,979.714,-19.755,17.09,0.414,-0.06
89285.0,-150237.0,117058.0,347.0,0.0,0.0,0.0,980.371,-19.32,19.47,0.452,-0.0
89284.0,-150303.0,116989.0,347.0,0.0,0.0,0.0,977.712,-19.426,18.81,0.438,-0.08
89284.0,-150338.0,116952.0,350.0,0.0,0.0,0.0,977.826,-19.362,18.51,0.514,-0.23
89284.0,-150391.0,116897.0,350.0,0.0,0.0,0.0,978.27,-19.375,18.7,0.506,-0.14
89284.0,-150431.0,116855.0,350.0,0.0,0.0,0.0,978.053,-19.388,18.64,0.472,-0.2
89284.0,-150485.0,116798.0,350.0,0.0,0.0,0.0,978.148,-19.438,18.65,0.471,-0.13
89283.0,-150542.0,116739.0,350.0,0.0,0.0,0.0,978.153,-19.461,18.64,0.481,-0.12
89282.0,-150562.0,116717.0,350.0,0.0,0.0,0.0,978.271,-17.125,18.6,0.482,-0.17
89282.0,-150558.0,116719.0,350.0,0.0,0.0,0.0,978.325,-14.838,18.56,0.485,-0.16
89282.0,-150563.0,116712.0,350.0,0.0,0.0,0.0,978.349,-15.407,18.56,0.483,-0.15
89281.0,-150570.0,116702.0,354.0,0.0,0.0,0.0,978.364,-15.693,18.57,0.478,-0.15
89280.0,-150575.0,116693.0,354.0,0.0,0.0,0.0,980.723,-15.531,18.61,0.48,-0.15
89279.0,-150609.0,116657.0,354.0,0.0,0.0,0.0,983.007,-17.924,18.7,0.482,-0.15
89278.0,-150719.0,116543.0,354.0,0.0,0.0,0.0,982.059,-17.27,18.67,0.481,-0.01
89278.0,-150744.0,116514.0,354.0,0.0,0.0,0.0,982.283,-17.092,16.28,0.625,-0.06
89277.0,-150802.0,116454.0,354.0,0.0,0.0,0.0,982.272,-20.216,14.01,0.576,-0.0
89277.0,-150844.0,116409.0,354.0,0.0,0.0,0.0,982.233,-19.871,14.59,0.496,-0.08
89278.0,-150825.0,116424.0,354.0,0.0,0.0,0.0,982.171,-19.38,14.89,0.607,-0.23
89278.0,-150809.0,116439.0,354.0,0.0,0.0,0.0,982.173,-17.209,14.68,0.486,-0.14
89278.0,-150740.0,116505.0,354.0,0.0,0.0,0.0,982.176,-14.857,14.67,0.675,-0.2
89278.0,-150707.0,116533.0,354.0,0.0,0.0,0.0,982.2,-15.451,14.68,0.74,-0.13
89277.0,-150710.0,116528.0,354.0,0.0,0.0,0.0,982.263,-15.716,14.7,0.487,-0.12
89278.0,-150684.0,116552.0,354.0,0.0,0.0,0.0,982.333,-15.566,14.68,0.652,-0.17
89278.0,-150618.0,116615.0,354.0,0.0,0.0,0.0,982.403,-13.254,14.64,0.502,-0.16
89277.0,-150525.0,116705.0,354.0,0.0,0.0,0.0,982.45,-10.944,14.6,0.567,-0.15
89276.0,-150423.0,116804.0,350.0,0.0,0.0,0.0,980.078,-11.542,14.56,0.633,-0.15
89276.0,-150351.0,116873.0,350.0,0.0,0.0,0.0,980.116,-11.864,14.57,0.574,-0.15
89276.0,-150333.0,116889.0,350.0,0.0,0.0,0.0,982.984,-14.114,14.67,0.565,-0.15
89276.0,-150315.0,116901.0,350.0,0.0,0.0,0.0,982.156,-15.908,14.69,0.575,-0.15
89276.0,-150265.0,116947.0,350.0,0.0,0.0,0.0,979.984,-13.268,14.59,0.582,-0.15
89275.0,-150215.0,116993.0,350.0,0.0,0.0,0.0,979.967,-13.473,14.6,0.587,-0.15
89276.0,-150209.0,116998.0,350.0,0.0,0.0,0.0,980.503,-16.3,14.67,0.577,-0.15
89275.0,-150198.0,117006.0,347.0,0.0,0.0,0.0,980.246,-16.022,14.66,0.434,-0.15
89276.0,-150179.0,117024.0,347.0,0.0,0.0,0.0,982.704,-15.544,14.69,0.488,-0.15
89275.0,-150164.0,117036.0,347.0,0.0,0.0,0.0,982.643,-15.767,14.69,0.421,-0.15
89275.0,-150133.0,117064.0,347.0,0.0,0.0,0.0,982.197,-15.81,12.29,0.36,-0.15
89276.0,-150089.0,117106.0,347.0,0.0,0.0,0.0,982.526,-15.956,9.96,0.562,-0.15
89276.0,-150092.0,117101.0,347.0,0.0,0.0,0.0,982.345,-15.865,12.94,0.405,-0.01
89276.0,-150101.0,117090.0,347.0,0.0,0.0,0.0,982.303,-15.825,15.58,0.557,-0.06
89274.0,-150116.0,117071.0,347.0,0.0,0.0,0.0,982.288,-15.87,14.82,0.635,-0.0
89274.0,-150141.0,117042.0,347.0,0.0,0.0,0.0,982.267,-18.203,14.61,0.531,-0.08
89275.0,-150150.0,117031.0,347.0,0.0,0.0,0.0,982.137,-20.356,17.2,0.649,-0.22
89274.0,-150192.0,116986.0,347.0,0.0,0.0,0.0,982.018,-19.614,19.5,0.569,-0.14
89273.0,-150173.0,117002.0,347.0,0.0,0.0,0.0,979.654,-19.225,18.86,0.687,-0.2
89273.0,-150191.0,116981.0,347.0,0.0,0.0,0.0,977.363,-19.305,18.49,0.694,-0.13
89273.0,-150187.0,116981.0,347.0,0.0,0.0,0.0,978.088,-16.945,16.26,0.746,-0.12
89272.0,-150133.0,117031.0,347.0,0.0,0.0,0.0,978.551,-14.718,13.83,0.649,-0.17
89273.0,-150132.0,117030.0,347.0,0.0,0.0,0.0,976.041,-15.218,14.39,0.511,-0.16
89272.0,-150149.0,117010.0,348.0,0.0,0.0,0.0,976.08,-15.442,17.08,0.594,-0.01
89271.0,-150165.0,116993.0,348.0,0.0,0.0,0.0,978.991,-15.343,16.92,0.38,-0.06
89271.0,-150172.0,116983.0,348.0,0.0,0.0,0.0,978.803,-15.558,14.03,0.511,0.0
89270.0,-150163.0,116990.0,348.0,0.0,0.0,0.0,978.259,-15.642,14.29,0.455,-0.08
89270.0,-150135.0,117015.0,348.0,0.0,0.0,0.0,978.391,-15.761,14.8,0.487,-0.23
89270.0,-150125.0,117023.0,348.0,0.0,0.0,0.0,975.91,-15.839,14.52,0.502,-0.14
89270.0,-150113.0,117032.0,348.0,0.0,0.0,0.0,975.869,-15.825,16.97,0.474,-0.2
89269.0,-150132.0,117011.0,348.0,0.0,0.0,0.0,978.674,-15.796,19.33,0.472,-0.13
89269.0,-150135.0,117005.0,350.0,0.0,0.0,0.0,978.555,-15.874,16.38,0.487,-0.12
89268.0,-150125.0,117012.0,350.0,0.0,0.0,0.0,978.155,-15.825,16.1,0.625,-0.17
89268.0,-150135.0,117000.0,350.0,0.0,0.0,0.0,978.318,-15.642,19.2,0.576,-0.16
89268.0,-150130.0,117002.0,350.0,0.0,0.0,0.0,978.398,-15.658,16.49,0.498,-0.15
89268.0,-150106.0,117023.0,350.0,0.0,0.0,0.0,978.534,-15.676,13.68,0.46,-0.15
89268.0,-150088.0,117039.0,350.0,0.0,0.0,0.0,978.47,-15.576,14.47,0.39,-0.15
89268.0,-150071.0,117054.0,350.0,0.0,0.0,0.0,978.46,-15.53,14.74,0.518,-0.15
89268.0,-150052.0,117071.0,350.0,0.0,0.0,0.0,978.438,-15.543,14.59,0.519,-0.15
89268.0,-150061.0,117059.0,348.0,0.0,0.0,0.0,978.401,-15.588,14.6,0.467,-0.01
89266.0,-150062.0,117054.0,348.0,0.0,0.0,0.0,978.378,-15.646,14.61,0.477,-0.06
89267.0,-150102.0,117014.0,348.0,0.0,0.0,0.0,978.335,-18.039,14.67,0.479,-0.0
89267.0,-150151.0,116962.0,348.0,0.0,0.0,0.0,978.288,-20.365,14.7,0.476,-0.08
89268.0,-150167.0,116944.0,348.0,0.0,0.0,0.0,978.254,-19.8,14.69,0.344,-0.22
89268.0,-150196.0,116913.0,348.0,0.0,0.0,0.0,980.597,-19.523,14.73,0.389,-0.14
89268.0,-150230.0,116878.0,348.0,0.0,0.0,0.0,982.831,-19.622,17.17,0.318,-0.2
89268.0,-150274.0,116831.0,348.0,0.0,0.0,0.0,979.903,-19.558,17.06,0.55,-0.13
89268.0,-150303.0,116799.0,346.0,0.0,0.0,0.0,977.436,-19.664,14.08,0.652,-0.12
89268.0,-150324.0,116774.0,346.0,0.0,0.0,0.0,978.252,-19.651,14.38,0.625,-0.17
89268.0,-150350.0,116746.0,346.0,0.0,0.0,0.0,978.556,-19.626,14.86,0.61,-0.16
89269.0,-150376.0,116717.0,346.0,0.0,0.0,0.0,978.437,-19.562,14.65,0.528,-0.15
89269.0,-150400.0,116690.0,346.0,0.0,0.0,0.0,978.468,-19.46,14.7,0.559,-0.15
89270.0,-150424.0,116663.0,346.0,0.0,0.0,0.0,978.46,-19.376,14.67,0.605,-0.15
89269.0,-150419.0,116664.0,346.0,0.0,0.0,0.0,978.448,-19.32,14.7,0.589,-0.15
89270.0,-150383.0,116699.0,346.0,0.0,0.0,0.0,976.116,-17.031,12.21,0.577,-0.15
89271.0,-150295.0,116784.0,346.0,0.0,0.0,0.0,973.862,-14.829,9.78,0.579,-0.15
89271.0,-150248.0,116827.0,346.0,0.0,0.0,0.0,976.696,-15.375,12.83,0.576,-0.15
89270.0,-150250.0,116822.0,346.0,0.0,0.0,0.0,979.212,-15.664,15.53,0.582,-0.15
89270.0,-150230.0,116840.0,346.0,0.0,0.0,0.0,978.479,-15.576,14.75,0.439,-0.15
89270.0,-150222.0,116846.0,346.0,0.0,0.0,0.0,978.226,-15.676,14.49,0.485,-0.15
89270.0,-150201.0,116864.0,346.0,0.0,0.0,0.0,978.385,-15.705,14.65,0.421,-0.15
89270.0,-150178.0,116885.0,346.0,0.0,0.0,0.0,975.994,-15.742,14.58,0.505,-0.15
89270.0,-150164.0,116895.0,346.0,0.0,0.0,0.0,976.052,-15.767,14.57,0.656,-0.15
89269.0,-150165.0,116892.0,348.0,0.0,0.0,0.0,978.872,-15.739,17.0,0.565,-0.15
89269.0,-150161.0,116892.0,348.0,0.0,0.0,0.0,978.615,-15.741,16.96,0.633,-0.15
89269.0,-150157.0,116895.0,348.0,0.0,0.0,0.0,978.155,-15.714,16.41,0.414,-0.15
89269.0,-150192.0,116857.0,348.0,0.0,0.0,0.0,978.265,-17.9,19.08,0.452,-0.15
89268.0,-150252.0,116795.0,348.0,0.0,0.0,0.0,978.204,-20.129,19.01,0.438,-0.15
89268.0,-150302.0,116743.0,348.0,0.0,0.0,0.0,978.249,-19.532,18.48,0.514,-0.15
89268.0,-150349.0,116693.0,348.0,0.0,0.0,0.0,978.209,-19.226,18.7,0.651,-0.15
89268.0,-150397.0,116642.0,348.0,0.0,0.0,0.0,980.6,-19.448,18.67,0.566,-0.15
89268.0,-150447.0,116589.0,351.0,0.0,0.0,0.0,982.918,-19.454,18.76,0.63,-0.15
89268.0,-150482.0,116551.0,351.0,0.0,0.0,0.0,982.405,-19.552,16.32,0.557,-0.15
89268.0,-150502.0,116528.0,351.0,0.0,0.0,0.0,979.807,-19.573,13.95,0.551,-0.15
89268.0,-150526.0,116501.0,351.0,0.0,0.0,0.0,980.009,-19.534,14.55,0.597,-0.15
89268.0,-150525.0,116499.0,351.0,0.0,0.0,0.0,980.5,-17.149,14.81,0.589,-0.15
89268.0,-150497.0,116524.0,351.0,0.0,0.0,0.0,977.929,-14.819,14.55,0.576,-0.15
89268.0,-150475.0,116543.0,351.0,0.0,0.0,0.0,980.38,-17.768,14.7,0.583,-0.15
89268.0,-150466.0,116550.0,351.0,0.0,0.0,0.0,983.231,-18.052,14.74,0.577,-0.15
89268.0,-150436.0,116576.0,351.0,0.0,0.0,0.0,980.05,-17.348,14.69,0.579,-0.15
89268.0,-150452.0,116557.0,351.0,0.0,0.0,0.0,979.852,-19.983,14.72,0.584,-0.15
89268.0,-150468.0,116538.0,351.0,0.0,0.0,0.0,982.889,-19.912,14.78,0.58,-0.15
89268.0,-150476.0,116524.0,351.0,0.0,0.0,0.0,977.428,-19.602,14.67,0.581,-0.15
89268.0,-150456.0,116542.0,351.0,0.0,0.0,0.0,980.578,-19.569,14.73,0.58,-0.15
89269.0,-150472.0,116523.0,351.0,0.0,0.0,0.0,983.172,-19.639,14.78,0.581,-0.15
89269.0,-150467.0,116524.0,351.0,0.0,0.0,0.0,980.064,-19.568,14.72,0.726,-0.15
89269.0,-150464.0,116525.0,351.0,0.0,0.0,0.0,979.835,-17.228,14.67,0.53,-0.15
89269.0,-150432.0,116553.0,351.0,0.0,0.0,0.0,980.639,-15.02,12.25,0.644,-0.15
89270.0,-150375.0,116608.0,351.0,0.0,0.0,0.0,978.085,-15.63,9.88,0.498,-0.15
89271.0,-150321.0,116660.0,351.0,0.0,0.0,0.0,978.177,-13.554,10.43,0.429,-0.15
89271.0,-150251.0,116727.0,351.0,0.0,0.0,0.0,981.05,-13.455,10.79,0.527,-0.15
89272.0,-150211.0,116765.0,351.0,0.0,0.0,0.0,980.779,-16.397,10.67,0.417,-0.15
89272.0,-150178.0,116796.0,351.0,0.0,0.0,0.0,980.312,-16.152,10.7,0.496,-0.15
89272.0,-150152.0,116819.0,351.0,0.0,0.0,0.0,982.794,-15.698,13.12,0.516,-0.15
89273.0,-150113.0,116855.0,347.0,0.0,0.0,0.0,982.641,-15.858,15.47,0.607,-0.29
89273.0,-150083.0,116883.0,347.0,0.0,0.0,0.0,982.131,-15.853,14.86,0.571,-0.24
89274.0,-150036.0,116926.0,347.0,0.0,0.0,0.0,982.368,-15.887,14.56,0.648,-0.3
89274.0,-150005.0,116954.0,347.0,0.0,0.0,0.0,979.949,-15.775,14.69,0.551,-0.22
89274.0,-150003.0,116953.0,347.0,0.0,0.0,0.0,977.704,-15.698,14.6,0.553,-0.08
89274.0,-149982.0,116972.0,347.0,0.0,0.0,0.0,978.29,-15.623,14.62,0.595,-0.17
89273.0,-149946.0,117005.0,347.0,0.0,0.0,0.0,978.623,-15.555,14.61,0.585,-0.1
89273.0,-149891.0,117056.0,347.0,0.0,0.0,0.0,978.515,-15.612,12.23,0.579,-0.17
89274.0,-149807.0,117138.0,343.0,0.0,0.0,0.0,978.573,-15.693,9.89,0.584,-0.18
89274.0,-149767.0,117175.0,343.0,0.0,0.0,0.0,978.405,-15.604,12.86,0.575,-0.13
89274.0,-149771.0,117169.0,343.0,0.0,0.0,0.0,978.279,-15.543,15.51,0.579,-0.14
89274.0,-149750.0,117186.0,343.0,0.0,0.0,0.0,978.257,-15.609,14.75,0.584,-0.15
89274.0,-149743.0,117191.0,343.0,0.0,0.0,0.0,978.262,-15.654,14.49,0.58,-0.15
89274.0,-149721.0,117209.0,343.0,0.0,0.0,0.0,978.271,-15.677,14.65,0.58,-0.15
89274.0,-149641.0,117284.0,343.0,0.0,0.0,0.0,978.324,-15.702,14.62,0.58,-0.15
89273.0,-149583.0,117339.0,347.0,0.0,0.0,0.0,980.807,-15.81,12.26,0.581,-0.15
89274.0,-149538.0,117380.0,347.0,0.0,0.0,0.0,983.15,-15.821,12.37,0.581,-0.15
89274.0,-149527.0,117389.0,347.0,0.0,0.0,0.0,982.563,-15.787,12.89,0.435,-0.15
89274.0,-149496.0,117417.0,347.0,0.0,0.0,0.0,982.273,-15.784,12.65,0.486,-0.15
89274.0,-149495.0,117417.0,347.0,0.0,0.0,0.0,982.361,-15.698,15.11,0.422,-0.15
89274.0,-149479.0,117430.0,347.0,0.0,0.0,0.0,982.315,-15.72,15.04,0.505,-0.15
89274.0,-149471.0,117435.0,347.0,0.0,0.0,0.0,982.255,-15.688,16.9,0.656,-0.15
89273.0,-149490.0,117414.0,347.0,0.0,0.0,0.0,982.144,-15.631,19.47,0.564,-0.15
89273.0,-149502.0,117398.0,351.0,0.0,0.0,0.0,982.174,-15.671,18.8,0.633,-0.15
89272.0,-149510.0,117387.0,351.0,0.0,0.0,0.0,979.801,-15.638,18.49,0.704,-0.15
89271.0,-149518.0,117375.0,351.0,0.0,0.0,0.0,977.469,-15.557,18.59,0.642,-0.15
89271.0,-149524.0,117365.0,351.0,0.0,0.0,0.0,978.059,-15.488,18.56,0.755,-0.15
89271.0,-149502.0,117384.0,351.0,0.0,0.0,0.0,978.364,-15.41,18.58,0.666,-0.29
89271.0,-149476.0,117407.0,351.0,0.0,0.0,0.0,978.279,-15.426,16.17,0.5,-0.24
89271.0,-149423.0,117458.0,351.0,0.0,0.0,0.0,978.412,-15.467,13.85,0.599,-0.3
89272.0,-149389.0,117490.0,351.0,0.0,0.0,0.0,978.408,-15.443,14.44,0.525,-0.22
89272.0,-149412.0,117463.0,349.0,0.0,0.0,0.0,978.44,-17.825,14.78,0.6,-0.08
89272.0,-149443.0,117428.0,349.0,0.0,0.0,0.0,978.455,-20.209,14.66,0.617,-0.16
89272.0,-149483.0,117386.0,349.0,0.0,0.0,0.0,978.473,-19.727,14.7,0.564,-0.1
89272.0,-149520.0,117345.0,349.0,0.0,0.0,0.0,978.377,-19.421,17.07,0.569,-0.17
89272.0,-149572.0,117291.0,349.0,0.0,0.0,0.0,980.614,-19.574,19.47,0.586,-0.18
89272.0,-149631.0,117230.0,349.0,0.0,0.0,0.0,982.89,-19.59,18.91,0.433,-0.13
89271.0,-149685.0,117174.0,349.0,0.0,0.0,0.0,979.884,-19.573,18.55,0.489,-0.14
89271.0,-149737.0,117120.0,349.0,0.0,0.0,0.0,977.22,-19.505,18.67,0.424,-0.15
89271.0,-149789.0,117065.0,347.0,0.0,0.0,0.0,977.969,-19.514,18.64,0.501,-0.15
89270.0,-149840.0,117011.0,347.0,0.0,0.0,0.0,978.241,-19.512,18.66,0.656,-0.15
89270.0,-149890.0,116957.0,347.0,0.0,0.0,0.0,978.106,-19.511,18.64,0.566,-0.15
89270.0,-149942.0,116903.0,347.0,0.0,0.0,0.0,978.162,-19.507,18.65,0.633,-0.15
89269.0,-149992.0,116849.0,347.0,0.0,0.0,0.0,978.197,-19.472,18.65,0.704,-0.15
89270.0,-150014.0,116824.0,347.0,0.0,0.0,0.0,978.236,-19.414,18.64,0.642,-0.29
89270.0,-150044.0,116791.0,347.0,0.0,0.0,0.0,978.237,-19.342,18.65,0.755,-0.24
89271.0,-150061.0,116770.0,347.0,0.0,0.0,0.0,978.26,-19.27,18.65,0.666,-0.3
89270.0,-150095.0,116734.0,344.0,0.0,0.0,0.0,978.287,-19.211,18.65,0.5,-0.22
89270.0,-150142.0,116684.0,344.0,0.0,0.0,0.0,978.394,-19.262,16.26,0.599,-0.08
89271.0,-150158.0,116665.0,344.0,0.0,0.0,0.0,978.5,-19.352,13.92,0.525,-0.16
89270.0,-150190.0,116629.0,344.0,0.0,0.0,0.0,978.486,-19.382,14.51,0.6,-0.1
89270.0,-150185.0,116631.0,344.0,0.0,0.0,0.0,978.459,-17.112,14.77,0.617,-0.17
89271.0,-150153.0,116661.0,344.0,0.0,0.0,0.0,978.419,-14.923,14.56,0.564,-0.18
89271.0,-150109.0,116702.0,344.0,0.0,0.0,0.0,975.972,-15.558,14.57,0.569,-0.13
89270.0,-150078.0,116730.0,344.0,0.0,0.0,0.0,975.969,-15.907,14.56,0.586,-0.14
89270.0,-150031.0,116774.0,342.0,0.0,0.0,0.0,978.845,-15.78,14.63,0.578,-0.15
89269.0,-150001.0,116801.0,342.0,0.0,0.0,0.0,978.559,-15.808,14.61,0.584,-0.15
89270.0,-149998.0,116801.0,342.0,0.0,0.0,0.0,978.099,-15.762,14.61,0.583,-0.15
89270.0,-149979.0,116818.0,342.0,0.0,0.0,0.0,980.712,-15.765,14.66,0.577,-0.15
89270.0,-149973.0,116821.0,342.0,0.0,0.0,0.0,980.636,-15.711,14.66,0.58,-0.14
89270.0,-149952.0,116839.0,342.0,0.0,0.0,0.0,977.788,-15.655,14.6,0.582,-0.15
89270.0,-149928.0,116861.0,342.0,0.0,0.0,0.0,978.061,-15.64,14.61,0.58,-0.15
89270.0,-149914.0,116872.0,342.0,0.0,0.0,0.0,978.568,-15.632,14.62,0.581,-0.15
89270.0,-149897.0,116884.0,346.0,0.0,0.0,0.0,978.363,-15.631,14.61,0.726,-0.15
89270.0,-149879.0,116900.0,346.0,0.0,0.0,0.0,978.409,-15.637,14.61,0.675,-0.15
89270.0,-149861.0,116914.0,346.0,0.0,0.0,0.0,978.381,-15.636,14.61,0.739,-0.15
89271.0,-149843.0,116929.0,346.0,0.0,0.0,0.0,978.404,-15.622,14.61,0.657,-0.15
89270.0,-149825.0,116944.0,346.0,0.0,0.0,0.0,978.378,-15.594,14.61,0.505,-0.15
89270.0,-149808.0,116958.0,346.0,0.0,0.0,0.0,978.371,-15.563,14.61,0.597,-0.15
89269.0,-149790.0,116973.0,346.0,0.0,0.0,0.0,978.373,-15.553,14.61,0.528,-0.15
89269.0,-149772.0,116988.0,346.0,0.0,0.0,0.0,978.366,-15.577,14.61,0.602,-0.15
89269.0,-149755.0,117001.0,346.0,0.0,0.0,0.0,980.741,-15.653,14.66,0.614,-0.15
89269.0,-149740.0,117014.0,346.0,0.0,0.0,0.0,980.689,-15.717,14.66,0.419,-0.15
89270.0,-149725.0,117028.0,346.0,0.0,0.0,0.0,977.785,-15.746,14.6,0.476,-0.15
89270.0,-149712.0,117040.0,346.0,0.0,0.0,0.0,978.068,-15.789,14.61,0.282,-0.15
89270.0,-149698.0,117052.0,346.0,0.0,0.0,0.0,978.544,-15.826,14.62,0.408,-0.15
89269.0,-149698.0,117049.0,346.0,0.0,0.0,0.0,978.254,-15.772,17.0,0.501,-0.15
89268.0,-149713.0,117031.0,346.0,0.0,0.0,0.0,978.231,-15.724,19.34,0.49,-0.15
89268.0,-149724.0,117017.0,346.0,0.0,0.0,0.0,980.597,-15.788,18.79,0.56,-0.15
89268.0,-149761.0,116978.0,352.0,0.0,0.0,0.0,982.946,-18.151,18.58,0.448,-0.15
89267.0,-149798.0,116939.0,352.0,0.0,0.0,0.0,982.337,-18.03,18.73,0.443,-0.15
89266.0,-149815.0,116920.0,352.0,0.0,0.0,0.0,981.969,-14.988,21.02,0.354,-0.15
89265.0,-149834.0,116898.0,352.0,0.0,0.0,0.0,982.145,-15.188,20.98,0.538,-0.15
89265.0,-149866.0,116864.0,352.0,0.0,0.0,0.0,982.177,-18.054,18.09,0.417,-0.15
89265.0,-149922.0,116805.0,352.0,0.0,0.0,0.0,982.166,-20.104,18.43,0.569,-0.15
89264.0,-149949.0,116775.0,352.0,0.0,0.0,0.0,982.149,-17.216,18.85,0.626,-0.15
89264.0,-149946.0,116776.0,352.0,0.0,0.0,0.0,982.185,-14.609,18.58,0.532,-0.15
89263.0,-149950.0,116768.0,352.0,0.0,0.0,0.0,979.802,-15.357,18.61,0.65,-0.15
89262.0,-149957.0,116758.0,352.0,0.0,0.0,0.0,977.477,-15.558,18.54,0.567,-0.15
89262.0,-149962.0,116751.0,352.0,0.0,0.0,0.0,978.067,-15.375,18.58,0.544,-0.15
89262.0,-149979.0,116731.0,352.0,0.0,0.0,0.0,978.437,-17.816,16.23,0.599,-0.15
89262.0,-150006.0,116700.0,352.0,0.0,0.0,0.0,978.332,-20.177,13.93,0.585,-0.15
89262.0,-150006.0,116699.0,352.0,0.0,0.0,0.0,978.373,-17.255,14.47,0.574,-0.15
89262.0,-149978.0,116723.0,352.0,0.0,0.0,0.0,978.368,-14.656,14.72,0.587,-0.15
89262.0,-149959.0,116739.0,352.0,0.0,0.0,0.0,978.387,-15.446,14.57,0.577,-0.15
89262.0,-149929.0,116766.0,351.0,0.0,0.0,0.0,978.449,-15.827,12.23,0.577,-0.15
89262.0,-149910.0,116782.0,351.0,0.0,0.0,0.0,978.531,-15.784,9.88,0.585,-0.01
89263.0,-149887.0,116803.0,351.0,0.0,0.0,0.0,976.139,-15.793,10.44,0.58,-0.06
89263.0,-149876.0,116810.0,351.0,0.0,0.0,0.0,976.169,-15.803,10.74,0.579,0.0
89263.0,-149851.0,116833.0,351.0,0.0,0.0,0.0,979.058,-15.858,10.62,0.581,-0.07
89263.0,-149839.0,116842.0,351.0,0.0,0.0,0.0,978.661,-15.748,13.06,0.58,-0.08
89262.0,-149873.0,116805.0,351.0,0.0,0.0,0.0,978.059,-18.006,15.42,0.58,-0.04
89262.0,-149929.0,116746.0,351.0,0.0,0.0,0.0,978.255,-20.315,14.9,0.581,-0.04
89262.0,-149974.0,116698.0,351.0,0.0,0.0,0.0,978.214,-19.736,14.56,0.58,-0.05
89263.0,-149991.0,116678.0,351.0,0.0,0.0,0.0,978.255,-19.423,14.73,0.58,-0.19
89264.0,-150017.0,116649.0,351.0,0.0,0.0,0.0,978.253,-19.586,14.69,0.581,-0.15
89263.0,-150033.0,116631.0,351.0,0.0,0.0,0.0,978.326,-17.195,14.65,0.58,-0.07
89262.0,-150030.0,116630.0,351.0,0.0,0.0,0.0,978.393,-14.913,14.59,0.581,-0.03
89261.0,-150046.0,116611.0,351.0,0.0,0.0,0.0,978.434,-15.474,14.61,0.581,0.03
89261.0,-150042.0,116612.0,351.0,0.0,0.0,0.0,978.468,-15.792,14.62,0.581,-0.09
89261.0,-150009.0,116643.0,351.0,0.0,0.0,0.0,978.462,-15.625,14.61,0.581,-0.23
89261.0,-149995.0,116654.0,351.0,0.0,0.0,0.0,978.428,-15.667,14.61,0.581,-0.13
89261.0,-149968.0,116678.0,351.0,0.0,0.0,0.0,978.393,-15.662,14.61,0.581,-0.2
89261.0,-149956.0,116687.0,351.0,0.0,0.0,0.0,978.38,-15.679,14.61,0.581,-0.12
89260.0,-149945.0,116694.0,351.0,0.0,0.0,0.0,978.393,-15.665,14.61,0.581,-0.11
89261.0,-149925.0,116712.0,351.0,0.0,0.0,0.0,978.421,-15.668,14.61,0.581,-0.17
89261.0,-149946.0,116688.0,351.0,0.0,0.0,0.0,978.354,-17.93,17.05,0.581,-0.16
89261.0,-150010.0,116622.0,351.0,0.0,0.0,0.0,980.65,-20.155,19.47,0.581,-0.14
89261.0,-150047.0,116581.0,351.0,0.0,0.0,0.0,980.697,-19.685,16.48,0.581,-0.15
89261.0,-150041.0,116584.0,351.0,0.0,0.0,0.0,980.256,-17.129,13.78,0.581,-0.14
89260.0,-150031.0,116592.0,351.0,0.0,0.0,0.0,982.748,-14.912,16.93,0.581,-0.14
89260.0,-150040.0,116580.0,351.0,0.0,0.0,0.0,982.527,-15.352,19.54,0.581,-0.15
89260.0,-150035.0,116581.0,351.0,0.0,0.0,0.0,982.092,-15.772,16.4,0.581,-0.15
89260.0,-149986.0,116628.0,351.0,0.0,0.0,0.0,982.386,-15.686,13.78,0.581,-0.29
89261.0,-149952.0,116659.0,351.0,0.0,0.0,0.0,982.279,-15.715,14.55,0.581,-0.24
89262.0,-149902.0,116704.0,351.0,0.0,0.0,0.0,982.298,-18.058,14.69,0.581,-0.22
89262.0,-149951.0,116651.0,354.0,0.0,0.0,0.0,982.337,-20.339,14.77,0.581,-0.07
89262.0,-149976.0,116623.0,354.0,0.0,0.0,0.0,980.011,-19.74,14.72,0.581,-0.16
89262.0,-150010.0,116586.0,354.0,0.0,0.0,0.0,977.701,-19.42,14.68,0.581,-0.1
89263.0,-150033.0,116561.0,354.0,0.0,0.0,0.0,978.273,-19.589,14.68,0.581,-0.17
89263.0,-150026.0,116565.0,354.0,0.0,0.0,0.0,978.54,-17.204,14.65,0.581,-0.18
89263.0,-150004.0,116583.0,354.0,0.0,0.0,0.0,978.32,-14.92,14.6,0.581,-0.13
89262.0,-150001.0,116584.0,354.0,0.0,0.0,0.0,978.227,-15.394,17.0,0.581,-0.14
89262.0,-150038.0,116544.0,354.0,0.0,0.0,0.0,978.092,-17.97,19.39,0.581,-0.15
89262.0,-150042.0,116537.0,354.0,0.0,0.0,0.0,978.108,-20.115,18.84,0.581,-0.28
89262.0,-150043.0,116530.0,354.0,0.0,0.0,0.0,975.776,-19.251,18.64,0.581,-0.3
89262.0,-150063.0,116507.0,354.0,0.0,0.0,0.0,973.513,-19.414,18.56,0.581,-0.22
89261.0,-150139.0,116428.0,354.0,0.0,0.0,0.0,974.161,-19.362,18.58,0.581,-0.07
89261.0,-150181.0,116384.0,354.0,0.0,0.0,0.0,974.527,-19.378,18.56,0.581,-0.16
89261.0,-150221.0,116341.0,354.0,0.0,0.0,0.0,974.388,-19.362,18.58,0.581,-0.09
89260.0,-150243.0,116316.0,354.0,0.0,0.0,0.0,976.791,-19.395,18.62,0.581,-0.17
89260.0,-150249.0,116307.0,351.0,0.0,0.0,0.0,979.049,-19.415,18.66,0.581,-0.18
89260.0,-150275.0,116278.0,351.0,0.0,0.0,0.0,978.49,-19.493,16.26,0.581,-0.13
89260.0,-150288.0,116262.0,351.0,0.0,0.0,0.0,978.199,-17.233,13.87,0.581,-0.14
89260.0,-150256.0,116291.0,351.0,0.0,0.0,0.0,978.324,-14.919,14.42,0.581,-0.15
89261.0,-150274.0,116271.0,351.0,0.0,0.0,0.0,978.243,-17.832,14.78,0.581,-0.14
89260.0,-150277.0,116263.0,351.0,0.0,0.0,0.0,978.259,-18.087,14.62,0.581,-0.15
89261.0,-150232.0,116307.0,351.0,0.0,0.0,0.0,978.359,-15.134,12.21,0.581,-0.15
89261.0,-150188.0,116348.0,351.0,0.0,0.0,0.0,978.479,-15.54,9.87,0.581,-0.14
89262.0,-150081.0,116449.0,347.0,0.0,0.0,0.0,978.498,-15.773,10.78,0.581,-0.15
89263.0,-150023.0,116504.0,347.0,0.0,0.0,0.0,978.526,-15.818,10.61,0.581,-0.15
89263.0,-149952.0,116572.0,347.0,0.0,0.0,0.0,978.533,-15.792,10.66,0.581,-0.15
89264.0,-149911.0,116610.0,347.0,0.0,0.0,0.0,978.456,-15.741,13.04,0.581,-0.15
89263.0,-149914.0,116604.0,347.0,0.0,0.0,0.0,978.374,-15.635,15.39,0.581,-0.15
89263.0,-149895.0,116620.0,347.0,0.0,0.0,0.0,978.386,-15.657,14.79,0.581,-0.15
89263.0,-149887.0,116625.0,347.0,0.0,0.0,0.0,978.388,-15.676,14.48,0.581,-0.15
89262.0,-149879.0,116630.0,347.0,0.0,0.0,0.0,978.283,-17.923,17.09,0.581,-0.15
89262.0,-149892.0,116615.0,347.0,0.0,0.0,0.0,978.201,-17.788,19.38,0.581,-0.15
89261.0,-149892.0,116612.0,347.0,0.0,0.0,0.0,978.221,-17.284,18.79,0.581,-0.15
89261.0,-149934.0,116567.0,347.0,0.0,0.0,0.0,978.216,-19.865,18.52,0.581,-0.15
89260.0,-149974.0,116523.0,347.0,0.0,0.0,0.0,978.224,-17.402,18.65,0.581,-0.15
89260.0,-149994.0,116502.0,347.0,0.0,0.0,0.0,978.231,-16.946,18.6,0.581,-0.15
89261.0,-150004.0,116488.0,347.0,0.0,0.0,0.0,978.216,-20.036,18.66,0.581,-0.29
89261.0,-150017.0,116473.0,347.0,0.0,0.0,0.0,978.222,-19.688,18.64,0.581,-0.24
89261.0,-149999.0,116487.0,350.0,0.0,0.0,0.0,978.235,-19.262,18.65,0.581,-0.3
89260.0,-150023.0,116459.0,350.0,0.0,0.0,0.0,980.633,-19.459,18.69,0.581,-0.22
89260.0,-150104.0,116377.0,350.0,0.0,0.0,0.0,982.991,-19.441,18.73,0.436,-0.07
89260.0,-150134.0,116345.0,350.0,0.0,0.0,0.0,982.519,-19.556,16.34,0.486,-0.16
89260.0,-150163.0,116313.0,350.0,0.0,0.0,0.0,982.225,-19.521,16.38,0.422,-0.23
89261.0,-150176.0,116298.0,350.0,0.0,0.0,0.0,979.98,-19.527,16.88,0.505,-0.26
89262.0,-150144.0,116327.0,350.0,0.0,0.0,0.0,977.579,-19.551,16.6,0.656,-0.47
89263.0,-150157.0,116312.0,350.0,0.0,0.0,0.0,978.131,-19.583,16.67,0.564,-0.29
89264.0,-150169.0,116296.0,354.0,0.0,0.0,0.0,978.489,-19.692,14.27,0.633,-0.22
89265.0,-150174.0,116288.0,354.0,0.0,0.0,0.0,978.36,-19.664,14.33,0.559,-0.24
89264.0,-150201.0,116259.0,354.0,0.0,0.0,0.0,978.438,-17.243,14.83,0.547,-0.02
89265.0,-150166.0,116291.0,354.0,0.0,0.0,0.0,978.47,-14.892,14.53,0.597,-0.18
89264.0,-150148.0,116305.0,354.0,0.0,0.0,0.0,978.469,-15.411,14.63,0.735,-0.13
89264.0,-150106.0,116339.0,354.0,0.0,0.0,0.0,978.319,-15.493,14.62,0.741,-0.17
89264.0,-150089.0,116354.0,354.0,0.0,0.0,0.0,978.25,-15.524,14.61,0.653,-0.14
89264.0,-150072.0,116368.0,356.0,0.0,0.0,0.0,978.2,-15.501,14.61,0.503,-0.13
89264.0,-150051.0,116385.0,356.0,0.0,0.0,0.0,978.188,-15.513,14.62,0.601,-0.15
89264.0,-150033.0,116402.0,356.0,0.0,0.0,0.0,978.205,-15.517,14.61,0.528,-0.14
89264.0,-150015.0,116417.0,356.0,0.0,0.0,0.0,978.241,-15.568,14.61,0.601,-0.14
89264.0,-150023.0,116406.0,356.0,0.0,0.0,0.0,978.274,-17.99,14.66,0.614,-0.15
89264.0,-150032.0,116394.0,356.0,0.0,0.0,0.0,978.32,-18.009,14.66,0.564,-0.14
89264.0,-150036.0,116387.0,356.0,0.0,0.0,0.0,978.363,-17.542,14.65,0.571,-0.14
89265.0,-150068.0,116352.0,356.0,0.0,0.0,0.0,978.376,-20.14,14.7,0.586,-0.15
89265.0,-150099.0,116318.0,358.0,0.0,0.0,0.0,980.764,-20.051,14.74,0.578,-0.14
89264.0,-150114.0,116299.0,358.0,0.0,0.0,0.0,983.025,-17.109,17.12,0.584,-0.14
89263.0,-150118.0,116292.0,358.0,0.0,0.0,0.0,982.367,-14.914,19.4,0.583,-0.14
89263.0,-150097.0,116311.0,358.0,0.0,0.0,0.0,979.694,-15.382,18.77,0.577,-0.28
89263.0,-150086.0,116318.0,358.0,0.0,0.0,0.0,977.539,-15.683,18.43,0.581,-0.24
89263.0,-150062.0,116340.0,358.0,0.0,0.0,0.0,978.076,-15.455,18.61,0.582,-0.3
89263.0,-150079.0,116319.0,358.0,0.0,0.0,0.0,978.394,-17.846,18.62,0.58,-0.22
89262.0,-150125.0,116271.0,358.0,0.0,0.0,0.0,980.614,-17.802,18.67,0.581,-0.07
89262.0,-150148.0,116245.0,354.0,0.0,0.0,0.0,980.656,-17.288,18.64,0.581,-0.16
89261.0,-150224.0,116167.0,354.0,0.0,0.0,0.0,977.816,-19.915,16.26,0.58,0.04
89262.0,-150262.0,116125.0,354.0,0.0,0.0,0.0,978.167,-19.903,13.92,0.581,-0.07
89261.0,-150281.0,116104.0,354.0,0.0,0.0,0.0,978.554,-19.387,14.51,0.436,-0.02
89261.0,-150308.0,116076.0,354.0,0.0,0.0,0.0,978.245,-19.6,14.82,0.486,-0.06
89261.0,-150291.0,116090.0,354.0,0.0,0.0,0.0,978.219,-19.551,14.65,0.422,-0.21
89261.0,-150305.0,116073.0,354.0,0.0,0.0,0.0,978.121,-19.618,14.69,0.505,-0.13
89261.0,-150350.0,116025.0,354.0,0.0,0.0,0.0,978.055,-19.534,17.07,0.656,-0.19
89262.0,-150391.0,115983.0,350.0,0.0,0.0,0.0,978.073,-19.583,17.04,0.419,-0.13
89261.0,-150444.0,115927.0,350.0,0.0,0.0,0.0,978.167,-19.621,16.49,0.538,-0.11
89261.0,-150490.0,115878.0,350.0,0.0,0.0,0.0,980.557,-19.523,19.15,0.4,-0.16
89261.0,-150534.0,115831.0,350.0,0.0,0.0,0.0,982.96,-19.52,19.09,0.472,-0.15
89260.0,-150559.0,115803.0,350.0,0.0,0.0,0.0,980.087,-17.134,18.46,0.672,-0.14
89260.0,-150544.0,115816.0,350.0,0.0,0.0,0.0,977.571,-14.873,16.2,0.574,-0.15
89259.0,-150532.0,115824.0,350.0,0.0,0.0,0.0,978.317,-15.441,16.21,0.628,-0.14
89259.0,-150529.0,115825.0,350.0,0.0,0.0,0.0,980.909,-15.715,16.84,0.561,-0.14
89259.0,-150506.0,115845.0,343.0,0.0,0.0,0.0,980.75,-15.599,14.18,0.544,-0.15
89259.0,-150484.0,115864.0,343.0,0.0,0.0,0.0,977.829,-15.569,14.25,0.45,-0.14
89259.0,-150467.0,115879.0,343.0,0.0,0.0,0.0,978.064,-15.519,14.78,0.499,-0.14
89259.0,-150448.0,115896.0,343.0,0.0,0.0,0.0,980.911,-15.581,14.61,0.417,-0.14
89259.0,-150431.0,115911.0,343.0,0.0,0.0,0.0,982.987,-15.626,14.72,0.505,-0.14
89259.0,-150413.0,115925.0,343.0,0.0,0.0,0.0,982.46,-15.691,14.67,0.653,-0.14
89259.0,-150409.0,115926.0,343.0,0.0,0.0,0.0,982.041,-18.018,17.13,0.562,-0.14
89258.0,-150413.0,115919.0,343.0,0.0,0.0,0.0,979.874,-17.989,17.02,0.637,-0.14
89258.0,-150371.0,115958.0,338.0,0.0,0.0,0.0,977.539,-15.118,16.38,0.559,-0.14
89257.0,-150362.0,115965.0,338.0,0.0,0.0,0.0,978.055,-15.268,19.03,0.546,-0.14
89257.0,-150385.0,115939.0,338.0,0.0,0.0,0.0,978.357,-15.683,18.92,0.597,-0.14
89256.0,-150411.0,115909.0,338.0,0.0,0.0,0.0,980.581,-17.802,18.49,0.59,-0.14
89256.0,-150477.0,115841.0,338.0,0.0,0.0,0.0,980.549,-20.101,18.76,0.575,-0.14
89256.0,-150521.0,115794.0,338.0,0.0,0.0,0.0,980.009,-19.477,18.66,0.583,-0.14
89255.0,-150535.0,115778.0,338.0,0.0,0.0,0.0,982.642,-16.888,18.7,0.577,-0.14
89255.0,-150560.0,115749.0,338.0,0.0,0.0,0.0,982.512,-17.109,18.67,0.578,-0.14
89255.0,-150616.0,115691.0,342.0,0.0,0.0,0.0,981.978,-19.957,18.73,0.584,-0.14
89255.0,-150666.0,115638.0,342.0,0.0,0.0,0.0,982.204,-19.727,18.73,0.581,-0.14
89254.0,-150712.0,115589.0,342.0,0.0,0.0,0.0,982.13,-19.261,18.71,0.579,-0.14
89254.0,-150760.0,115538.0,342.0,0.0,0.0,0.0,982.172,-19.504,18.72,0.581,-0.14
89254.0,-150806.0,115488.0,342.0,0.0,0.0,0.0,979.763,-19.436,18.68,0.58,-0.14
89252.0,-150867.0,115425.0,342.0,0.0,0.0,0.0,977.377,-19.354,21.02,0.581,-0.14
89252.0,-150968.0,115317.0,342.0,0.0,0.0,0.0,978.364,-19.448,18.06,0.725,-0.14
89252.0,-151013.0,115270.0,346.0,0.0,0.0,0.0,978.192,-19.428,18.34,0.53,-0.14
89251.0,-151073.0,115206.0,346.0,0.0,0.0,0.0,980.514,-19.324,21.25,0.644,-0.14
89250.0,-151145.0,115131.0,346.0,0.0,0.0,0.0,982.755,-19.253,23.42,0.498,-0.14
89249.0,-151201.0,115073.0,346.0,0.0,0.0,0.0,979.909,-19.315,20.44,0.574,-0.14
89249.0,-151239.0,115032.0,346.0,0.0,0.0,0.0,977.358,-19.385,17.71,0.767,-0.14
89249.0,-151282.0,114985.0,346.0,0.0,0.0,0.0,978.088,-19.378,18.52,0.67,-0.14
89249.0,-151326.0,114937.0,346.0,0.0,0.0,0.0,978.345,-19.385,18.77,0.73,-0.14
89249.0,-151383.0,114878.0,346.0,0.0,0.0,0.0,978.253,-21.819,16.26,0.517,-0.14
89250.0,-151425.0,114832.0,350.0,0.0,0.0,0.0,978.357,-21.827,13.96,0.692,-0.14
89250.0,-151439.0,114815.0,350.0,0.0,0.0,0.0,978.358,-18.91,14.49,0.629,-0.14
89251.0,-151457.0,114793.0,350.0,0.0,0.0,0.0,978.361,-19.166,14.82,0.776,-0.14
89251.0,-151480.0,114768.0,350.0,0.0,0.0,0.0,978.347,-19.647,14.64,0.682,-0.14
89251.0,-151501.0,114744.0,350.0,0.0,0.0,0.0,975.979,-19.423,14.65,0.494,-0.14
89251.0,-151522.0,114719.0,350.0,0.0,0.0,0.0,973.661,-19.462,14.6,0.586,-0.14
89251.0,-151543.0,114696.0,350.0,0.0,0.0,0.0,974.242,-19.452,14.62,0.528,-0.14
89252.0,-151564.0,114672.0,350.0,0.0,0.0,0.0,976.923,-19.54,14.66,0.604,-0.14
89252.0,-151587.0,114646.0,350.0,0.0,0.0,0.0,979.076,-19.592,14.7,0.618,-0.14
89252.0,-151611.0,114620.0,350.0,0.0,0.0,0.0,978.533,-19.637,14.7,0.419,-0.14
89252.0,-151634.0,114593.0,350.0,0.0,0.0,0.0,978.218,-19.679,14.69,0.618,-0.14
89253.0,-151658.0,114567.0,350.0,0.0,0.0,0.0,978.405,-19.693,14.69,0.522,-0.14
89253.0,-151681.0,114540.0,350.0,0.0,0.0,0.0,978.347,-19.697,14.69,0.662,-0.14
89254.0,-151704.0,114514.0,350.0,0.0,0.0,0.0,980.734,-19.707,14.73,0.735,-0.14
89253.0,-151702.0,114512.0,350.0,0.0,0.0,0.0,983.054,-17.349,14.73,0.491,-0.14
89253.0,-151714.0,114499.0,350.0,0.0,0.0,0.0,982.399,-17.255,17.11,0.645,-0.14
89253.0,-151768.0,114441.0,350.0,0.0,0.0,0.0,979.624,-19.951,19.45,0.506,-0.14
89252.0,-151815.0,114392.0,350.0,0.0,0.0,0.0,977.491,-19.623,18.82,0.571,-0.14
89252.0,-151842.0,114362.0,350.0,0.0,0.0,0.0,978.127,-19.236,16.12,0.63,-0.14
89252.0,-151872.0,114328.0,350.0,0.0,0.0,0.0,980.806,-19.471,16.4,0.574,-0.14
89253.0,-151880.0,114319.0,350.0,0.0,0.0,0.0,980.564,-17.08,16.84,0.566,-0.14
89251.0,-151861.0,114334.0,350.0,0.0,0.0,0.0,980.11,-14.851,16.57,0.443,-0.14
89251.0,-151849.0,114344.0,350.0,0.0,0.0,0.0,980.319,-15.428,16.62,0.48,-0.14
89252.0,-151828.0,114363.0,350.0,0.0,0.0,0.0,977.978,-15.841,14.19,0.423,-0.14
89251.0,-151805.0,114383.0,350.0,0.0,0.0,0.0,978.035,-15.711,14.25,0.51,-0.14
89251.0,-151786.0,114399.0,350.0,0.0,0.0,0.0,978.546,-15.773,14.8,0.652,-0.14
89252.0,-151740.0,114443.0,350.0,0.0,0.0,0.0,978.331,-13.461,14.5,0.563,-0.14
89251.0,-151695.0,114484.0,350.0,0.0,0.0,0.0,978.41,-13.533,14.59,0.635,-0.14
89251.0,-151682.0,114494.0,350.0,0.0,0.0,0.0,978.352,-16.356,14.61,0.558,-0.14
89251.0,-151665.0,114509.0,350.0,0.0,0.0,0.0,978.384,-16.016,14.63,0.547,-0.14
89251.0,-151641.0,114530.0,350.0,0.0,0.0,0.0,976.003,-15.454,14.57,0.597,-0.14
89251.0,-151620.0,114548.0,350.0,0.0,0.0,0.0,976.049,-15.599,14.57,0.59,-0.14
89251.0,-151598.0,114568.0,350.0,0.0,0.0,0.0,978.964,-15.54,14.63,0.43,-0.14
89251.0,-151577.0,114587.0,350.0,0.0,0.0,0.0,978.679,-15.56,14.62,0.488,-0.14
89251.0,-151556.0,114606.0,350.0,0.0,0.0,0.0,978.206,-15.547,14.61,0.419,-0.14
89251.0,-151534.0,114624.0,350.0,0.0,0.0,0.0,978.42,-15.619,14.61,0.503,-0.14
89251.0,-151514.0,114642.0,350.0,0.0,0.0,0.0,978.365,-15.691,14.61,0.66,-0.14
89251.0,-151494.0,114659.0,350.0,0.0,0.0,0.0,978.393,-15.753,14.61,0.564,-0.14
89251.0,-151475.0,114675.0,350.0,0.0,0.0,0.0,978.361,-15.799,14.61,0.632,-0.14
89251.0,-151456.0,114691.0,350.0,0.0,0.0,0.0,978.378,-15.792,14.61,0.559,-0.14
89252.0,-151424.0,114721.0,346.0,0.0,0.0,0.0,978.458,-15.83,12.22,0.547,-0.14
89252.0,-151390.0,114751.0,346.0,0.0,0.0,0.0,978.449,-15.76,12.28,0.597,-0.14
89252.0,-151373.0,114765.0,346.0,0.0,0.0,0.0,978.357,-15.591,15.2,0.591,-0.14
89251.0,-151379.0,114756.0,346.0,0.0,0.0,0.0,978.365,-15.559,14.92,0.575,-0.0
89251.0,-151373.0,114758.0,346.0,0.0,0.0,0.0,978.379,-15.56,14.44,0.583,-0.05
89250.0,-151381.0,114749.0,346.0,0.0,0.0,0.0,978.362,-15.556,14.66,0.577,0.0
89250.0,-151372.0,114754.0,346.0,0.0,0.0,0.0,978.34,-15.577,14.6,0.724,-0.07
89250.0,-151337.0,114786.0,346.0,0.0,0.0,0.0,978.303,-15.603,14.63,0.679,-0.21
89250.0,-151319.0,114800.0,345.0,0.0,0.0,0.0,978.269,-15.625,14.6,0.739,-0.13
89250.0,-151288.0,114827.0,345.0,0.0,0.0,0.0,978.255,-15.627,14.62,0.655,-0.19
89250.0,-151272.0,114841.0,345.0,0.0,0.0,0.0,978.277,-15.608,14.62,0.505,-0.12
89251.0,-151231.0,114879.0,345.0,0.0,0.0,0.0,978.331,-15.582,14.61,0.597,-0.25
89251.0,-151191.0,114917.0,345.0,0.0,0.0,0.0,978.399,-15.571,14.61,0.528,-0.25
89252.0,-151139.0,114965.0,345.0,0.0,0.0,0.0,978.464,-15.591,14.61,0.748,-0.3
89252.0,-151106.0,114994.0,345.0,0.0,0.0,0.0,978.52,-15.638,14.61,0.708,-0.21
89253.0,-151111.0,114986.0,345.0,0.0,0.0,0.0,978.629,-18.12,12.27,0.723,-0.07
89253.0,-151101.0,114992.0,346.0,0.0,0.0,0.0,978.651,-18.09,12.32,0.647,-0.15
