theta,phi,psi,altitude,vx,vy,vz,accelx,accely,accelz,yaw1,yaw2
-369.0,196.0,27781.0,456.0,-10.812,-1.712,0.0,39.501,-114.563,-1012.69,3.744,0.47
-356.0,204.0,27783.0,456.0,-27.631,-1.094,0.0,115.999,-30.118,-996.1,1.905,0.07
-352.0,194.0,27782.0,456.0,-29.233,-18.585,0.0,62.106,43.77,-1002.24,0.656,0.23
-367.0,212.0,27783.0,456.0,-8.281,-10.43,0.0,-29.415,-51.98,-1010.22,3.056,-0.78
-352.0,234.0,27780.0,456.0,-14.743,8.966,0.0,59.441,-98.752,-995.65,2.336,2.49
-334.0,234.0,27780.0,456.0,-41.586,1.794,0.0,146.078,-0.039,-1003.03,1.281,0.08
-349.0,225.0,27778.0,456.0,-33.441,-10.315,0.0,16.227,23.994,-1019.9,0.191,-2.24
-361.0,245.0,27776.0,456.0,-9.04,2.171,0.0,-54.478,-70.297,-990.43,2.928,0.71
-348.0,257.0,27777.0,456.0,-25.993,13.342,0.0,102.896,-72.814,-974.21,1.344,0.58
-309.0,246.0,27777.0,456.0,-46.068,1.079,0.0,124.07,17.348,-1016.17,-0.482,5.05
-326.0,234.0,27776.0,456.0,-18.203,-7.364,0.0,-62.255,8.149,-1016.35,-0.987,0.14
-305.0,257.0,27774.0,456.0,-2.695,4.708,0.0,-16.618,-75.007,-958.16,3.389,6.03
-297.0,267.0,27772.0,456.0,-34.575,12.819,0.0,169.746,-65.063,-988.36,1.129,-2.49
-289.0,262.0,27773.0,456.0,-38.187,2.523,0.0,69.96,6.125,-1036.71,0.393,0.5
-328.0,257.0,27770.0,456.0,-2.247,-2.852,0.0,-86.555,-5.836,-980.06,0.136,-3.53
-319.0,284.0,27771.0,456.0,-4.414,10.072,0.0,51.484,-77.901,-941.63,4.129,1.48
-296.0,296.0,27771.0,456.0,-34.476,18.379,0.0,166.864,-65.666,-1010.98,1.336,0.54
-306.0,291.0,27774.0,456.0,-18.892,6.081,0.0,-5.028,14.391,-1011.82,0.775,-0.53
-332.0,295.0,27775.0,456.0,12.488,-0.995,0.0,-70.011,-3.954,-931.15,2.017,-1.45
-300.0,312.0,27774.0,456.0,-7.527,13.78,0.0,124.794,-89.676,-969.81,1.628,3.6
-290.0,323.0,27775.0,456.0,-28.167,18.987,0.0,137.466,-58.129,-1049.89,1.657,-1.1
-315.0,307.0,27773.0,456.0,-2.48,1.164,0.0,-41.92,33.387,-998.98,-0.982,-2.38
-333.0,305.0,27773.0,456.0,12.776,-5.268,0.0,-18.338,-10.902,-940.32,0.545,-1.64
-306.0,314.0,27772.0,456.0,-10.949,10.016,0.0,133.71,-96.417,-1017.97,-0.154,2.35
-280.0,300.0,27774.0,456.0,-14.955,4.622,0.0,78.633,-21.415,-1046.7,-2.08,3.97
-293.0,269.0,27770.0,456.0,10.421,-17.564,0.0,-39.715,50.009,-964.2,-3.346,0.15
-261.0,280.0,27769.0,456.0,14.338,-11.919,0.0,35.436,-52.331,-971.55,1.575,6.64
-264.0,282.0,27768.0,456.0,-3.422,6.141,0.0,122.392,-106.096,-1048.84,-1.665,-3.27
-232.0,261.0,27766.0,456.0,-5.697,-9.645,0.0,46.804,19.179,-1010.06,-2.384,6.16
-258.0,234.0,27766.0,456.0,8.855,-30.168,0.0,-21.021,46.733,-961.66,-2.708,-3.1
-225.0,261.0,27764.0,456.0,4.794,-12.598,0.0,47.81,-98.432,-1009.59,3.33,6.52
-211.0,284.0,27764.0,457.0,-13.039,5.95,0.0,107.118,-104.359,-1033.55,2.595,0.66
-208.0,277.0,27770.0,457.0,-12.326,-14.012,0.0,39.989,43.607,-978.19,1.113,0.78
-222.0,272.0,27770.0,457.0,3.339,-26.435,0.0,-21.635,23.204,-969.44,0.961,-0.82
-207.0,293.0,27776.0,457.0,-0.235,2.198,0.0,44.052,-117.208,-1015.88,1.738,2.97
-176.0,294.0,27778.0,457.0,-20.844,14.408,0.0,115.463,-64.858,-1010.01,-0.784,3.87
-182.0,269.0,27778.0,457.0,-22.302,-5.033,0.0,47.283,58.385,-983.44,-1.711,-1.37
-191.0,277.0,27781.0,457.0,-3.269,-3.398,0.0,-35.954,-17.589,-995.36,2.138,0.9
-185.0,290.0,27778.0,457.0,-7.854,19.88,0.0,56.193,-117.62,-1012.14,0.065,0.78
-169.0,290.0,27783.0,458.0,-30.988,16.18,0.0,134.412,-19.312,-999.47,0.6,0.16
-178.0,261.0,27782.0,458.0,-22.272,-3.74,0.0,15.533,49.003,-1000.2,-2.884,-0.84
-187.0,264.0,27786.0,458.0,5.523,4.957,0.0,-59.121,-58.492,-993.66,-0.14,1.55
-167.0,266.0,27785.0,458.0,-6.85,20.629,0.0,91.432,-91.62,-982.03,-1.473,2.33
-128.0,240.0,27786.0,458.0,-31.431,7.339,0.0,147.535,18.729,-995.36,-3.333,4.38
-154.0,211.0,27786.0,458.0,-7.98,-8.243,0.0,-28.445,25.374,-996.6,-3.747,-2.67
-145.0,221.0,27784.0,458.0,13.89,4.981,0.0,-33.722,-84.443,-970.67,0.454,4.18
-160.0,219.0,27786.0,458.0,-12.849,14.478,0.0,154.557,-76.157,-976.47,-1.738,-6.47
-144.0,192.0,27788.0,456.0,-22.215,-1.965,0.0,96.787,25.008,-1000.42,-3.338,1.47
-184.0,169.0,27789.0,456.0,14.075,-12.435,0.0,-92.189,3.419,-978.18,-3.346,-3.68
-161.0,190.0,27792.0,456.0,18.103,1.132,0.0,21.664,-89.541,-940.92,2.472,5.36
-122.0,188.0,27792.0,456.0,-19.2,6.572,0.0,188.862,-63.404,-985.82,-1.233,3.05
-133.0,167.0,27793.0,456.0,-9.694,-10.802,0.0,31.849,24.92,-1018.22,-2.379,-1.78
-156.0,162.0,27793.0,456.0,27.205,-19.45,0.0,-85.013,-1.783,-959.96,0.205,-0.41
-148.0,169.0,27793.0,456.0,12.282,-5.713,0.0,108.833,-88.953,-968.97,-0.403,-0.4
-111.0,170.0,27793.0,456.0,-14.571,-1.87,0.0,165.177,-55.637,-1037.68,-0.449,3.31
-134.0,141.0,27793.0,456.0,6.231,-18.182,0.0,-40.324,34.157,-988.53,-3.513,-1.68
-141.0,138.0,27795.0,456.0,27.288,-22.362,0.0,-51.884,-6.987,-918.79,0.32,1.59
-105.0,138.0,27792.0,456.0,-2.288,-3.519,0.0,144.857,-99.05,-989.14,-2.056,3.87
-84.0,135.0,27795.0,456.0,-21.008,-1.423,0.0,117.751,-39.636,-1040.89,-0.748,1.83
-91.0,99.0,27792.0,456.0,2.635,-19.994,0.0,-46.462,43.802,-962.23,-4.738,1.75
-71.0,103.0,27792.0,456.0,7.782,-16.138,0.0,17.367,-38.293,-933.74,0.774,4.76
-49.0,123.0,27792.0,456.0,-21.713,7.141,0.0,145.583,-112.637,-1024.05,1.421,1.08
-20.0,112.0,27792.0,456.0,-25.623,2.169,0.0,55.374,-9.114,-1020.33,-1.338,5.66
-47.0,98.0,27792.0,456.0,-4.374,-14.036,0.0,-45.736,39.497,-942.8,-0.328,-2.42
-10.0,121.0,27793.0,456.0,-8.458,3.103,0.0,51.135,-86.798,-981.76,2.874,7.05
-1.0,138.0,27794.0,456.0,-29.457,21.601,0.0,122.403,-101.249,-1048.82,1.152,-0.67
4.0,117.0,27794.0,456.0,-23.912,2.477,0.0,24.123,43.102,-984.45,-1.566,2.09
-18.0,93.0,27796.0,456.0,-5.808,-10.336,0.0,-30.081,27.252,-951.2,-2.892,-2.12
0.0,99.0,27797.0,456.0,-10.807,15.147,0.0,67.845,-120.156,-1021.21,-1.618,2.76
18.0,95.0,27797.0,456.0,-27.679,25.853,0.0,118.953,-72.99,-1029.57,-2.045,1.58
9.0,69.0,27799.0,456.0,-19.897,1.503,0.0,26.476,64.942,-969.48,-1.999,-1.27
0.0,85.0,27798.0,454.0,-0.922,-8.663,0.0,-24.197,0.915,-976.0,4.354,0.5
3.0,112.0,27797.0,454.0,-7.505,12.849,0.0,70.998,-123.47,-1025.88,2.565,-0.17
28.0,112.0,27800.0,454.0,-25.345,11.074,0.0,120.358,-39.426,-1004.03,-0.178,2.64
7.0,79.0,27798.0,454.0,-14.822,-15.542,0.0,13.179,63.106,-975.59,-3.54,-3.11
-3.0,88.0,27801.0,454.0,6.753,-13.154,0.0,-40.393,-40.196,-997.16,1.732,0.59
3.0,104.0,27799.0,454.0,-3.321,8.404,0.0,87.056,-118.538,-1015.01,0.432,0.19
20.0,100.0,27803.0,454.0,-23.135,-0.217,0.0,127.46,2.402,-992.22,0.447,0.63
-11.0,86.0,27801.0,454.0,-3.862,-20.725,0.0,-21.444,48.55,-988.64,-0.237,-4.09
-3.0,106.0,27804.0,455.0,16.821,-6.831,0.0,-36.903,-81.549,-994.82,2.406,4.33
-4.0,125.0,27804.0,455.0,-6.947,7.398,0.0,134.844,-90.159,-999.94,2.094,-3.09
22.0,108.0,27803.0,455.0,-21.341,-12.72,0.0,108.283,43.023,-1002.26,-0.943,3.26
-6.0,96.0,27806.0,455.0,12.314,-28.289,0.0,-72.855,23.129,-991.28,-0.609,-1.78
12.0,121.0,27802.0,455.0,20.395,-10.366,0.0,15.039,-105.867,-981.17,2.647,4.72
35.0,140.0,27802.0,455.0,-15.359,-4.018,0.0,190.527,-67.853,-998.06,2.707,-0.01
26.0,125.0,27800.0,455.0,-14.633,-23.451,0.0,56.995,44.584,-1009.92,-0.354,-2.13
3.0,140.0,27799.0,455.0,22.491,-27.622,0.0,-92.374,-7.666,-978.8,3.866,-0.21
-3.0,174.0,27799.0,457.0,13.694,-7.015,0.0,77.19,-106.858,-976.62,4.457,-2.25
50.0,175.0,27801.0,457.0,-21.613,-6.2,0.0,178.284,-44.145,-1018.7,-0.097,6.43
24.0,159.0,27800.0,457.0,-3.309,-26.486,0.0,-23.606,41.777,-1005.54,-0.69,-2.83
23.0,180.0,27801.0,457.0,23.839,-27.602,0.0,-69.041,-26.075,-955.3,4.509,3.5
48.0,204.0,27798.0,457.0,-7.915,-5.696,0.0,148.128,-99.73,-1000.01,2.612,1.66
63.0,217.0,27799.0,457.0,-33.125,-6.139,0.0,137.097,-19.522,-1039.71,3.279,0.06
35.0,207.0,27795.0,457.0,-6.664,-22.254,0.0,-61.908,44.907,-970.87,0.523,-2.01
29.0,233.0,27798.0,457.0,2.827,-13.082,0.0,-5.693,-50.065,-940.89,4.732,0.38
59.0,259.0,27797.0,455.0,-26.945,7.97,0.0,155.903,-102.955,-1024.26,2.984,2.48
61.0,262.0,27799.0,455.0,-28.545,-1.578,0.0,55.383,11.411,-1017.35,2.112,0.2
29.0,259.0,27799.0,455.0,0.718,-16.196,0.0,-70.162,37.176,-928.93,1.81,-2.52
55.0,282.0,27798.0,455.0,-2.475,0.951,0.0,56.255,-87.9,-975.45,3.051,4.76
61.0,311.0,27799.0,455.0,-29.792,15.304,0.0,156.662,-85.255,-1056.43,4.168,-2.21
67.0,296.0,27797.0,455.0,-23.765,-3.711,0.0,33.774,43.809,-986.89,-0.434,1.58
45.0,285.0,27799.0,455.0,-0.011,-15.504,0.0,-44.011,18.285,-935.59,-0.38,-1.48
56.0,303.0,27795.0,455.0,-8.471,5.079,0.0,76.018,-108.012,-1016.87,1.272,1.2
79.0,314.0,27795.0,456.0,-27.521,11.76,0.0,123.563,-61.812,-1038.02,1.482,2.15
70.0,303.0,27793.0,456.0,-12.26,-12.662,0.0,0.169,49.467,-954.92,0.513,-0.22
70.0,327.0,27791.0,456.0,5.921,-18.967,0.0,-19.401,-11.888,-962.79,5.671,2.21
74.0,358.0,27791.0,456.0,-8.24,-0.948,0.0,103.982,-108.078,-1041.47,3.871,-1.08
103.0,355.0,27790.0,456.0,-21.092,-5.645,0.0,105.666,-24.583,-1005.49,-0.169,3.78
63.0,333.0,27788.0,456.0,-6.045,-25.73,0.0,-10.917,53.545,-953.24,-1.438,-5.98
60.0,361.0,27789.0,456.0,5.91,-21.169,0.0,-5.811,-36.681,-993.39,5.676,1.14
69.0,388.0,27786.0,456.0,-11.441,-2.2,0.0,108.205,-97.914,-1033.48,3.536,-0.24
72.0,405.0,27790.0,454.0,-22.734,-12.097,0.0,93.637,0.242,-989.47,4.52,-0.88
49.0,402.0,27788.0,454.0,-4.721,-29.494,0.0,-20.675,36.098,-965.97,1.966,-2.36
54.0,418.0,27792.0,454.0,6.086,-19.058,0.0,-0.23,-68.679,-1006.29,2.221,2.56
66.0,430.0,27790.0,454.0,-16.859,-0.848,0.0,126.49,-83.808,-1018.24,0.984,-0.26
78.0,418.0,27791.0,454.0,-29.731,-12.645,0.0,96.664,29.566,-983.65,-0.303,0.95
49.0,412.0,27791.0,454.0,-6.056,-22.245,0.0,-46.531,26.836,-974.91,0.909,-2.87
58.0,440.0,27786.0,454.0,1.122,0.226,0.0,9.124,-99.283,-995.56,3.605,3.06
71.0,468.0,27788.0,454.0,-30.776,10.676,0.0,154.758,-73.107,-997.76,4.669,-0.99
70.0,445.0,27784.0,452.0,-35.808,-8.97,0.0,60.617,44.599,-992.42,-1.849,-0.54
57.0,449.0,27785.0,452.0,-6.695,-15.106,0.0,-76.771,-0.398,-980.62,2.052,1.45
55.0,472.0,27782.0,452.0,-11.828,8.009,0.0,58.3,-103.057,-979.93,2.381,-0.71
102.0,474.0,27782.0,452.0,-41.736,13.483,0.0,162.208,-42.814,-998.74,0.309,5.53
75.0,450.0,27779.0,452.0,-27.096,-2.215,0.0,-5.247,41.038,-998.69,-2.067,-3.51
66.0,461.0,27778.0,452.0,-0.066,-2.579,0.0,-61.432,-27.169,-966.69,2.441,1.62
59.0,474.0,27777.0,452.0,-21.836,14.69,0.0,124.954,-99.158,-981.12,0.663,-3.94
80.0,465.0,27777.0,452.0,-44.11,10.835,0.0,137.867,-21.667,-1021.44,-1.13,1.26
42.0,442.0,27778.0,455.0,-17.725,-7.977,0.0,-50.205,41.534,-992.77,-2.014,-4.42
32.0,456.0,27779.0,455.0,3.968,-3.058,0.0,-27.623,-45.311,-957.25,2.569,0.44
68.0,468.0,27778.0,455.0,-21.03,15.285,0.0,152.753,-102.751,-1016.93,0.325,3.69
60.0,466.0,27781.0,455.0,-27.767,6.971,0.0,90.55,-3.144,-1041.4,0.91,-2.88
31.0,455.0,27779.0,455.0,3.051,-11.515,0.0,-65.592,36.321,-963.36,0.318,-2.22
35.0,474.0,27781.0,455.0,5.484,0.218,0.0,35.259,-77.721,-966.71,2.452,1.2
44.0,495.0,27781.0,455.0,-23.239,14.114,0.0,161.667,-92.575,-1051.27,2.474,-2.03
37.0,474.0,27781.0,455.0,-20.151,-4.575,0.0,40.266,36.398,-1013.55,-1.713,-1.11
5.0,456.0,27785.0,455.0,7.238,-18.332,0.0,-60.735,25.836,-937.13,-1.486,-2.78
11.0,460.0,27782.0,455.0,-0.688,1.682,0.0,70.185,-105.18,-994.98,-1.292,0.39
27.0,480.0,27786.0,455.0,-24.399,9.673,0.0,138.763,-66.291,-1046.67,3.173,0.03
19.0,458.0,27785.0,455.0,-11.623,-12.856,0.0,2.477,46.871,-967.74,-1.752,-0.08
5.0,465.0,27785.0,455.0,9.82,-19.085,0.0,-39.39,-8.109,-943.17,2.5,-0.05
5.0,477.0,27786.0,455.0,-4.786,-0.772,0.0,97.535,-105.243,-1024.01,0.286,-1.7
26.0,458.0,27784.0,455.0,-26.202,0.677,0.0,119.437,-33.735,-1009.82,-3.538,1.94
-5.0,432.0,27784.0,455.0,-11.902,-17.887,0.0,-16.105,47.336,-943.39,-2.431,-4.31
0.0,457.0,27785.0,450.0,0.619,-15.213,0.0,-16.075,-29.781,-971.23,5.123,3.04
13.0,487.0,27782.0,450.0,-19.261,3.421,0.0,112.186,-98.987,-1024.83,4.099,0.46
30.0,490.0,27785.0,450.0,-32.723,-1.407,0.0,95.761,-12.69,-983.64,1.547,1.94
-2.0,467.0,27782.0,450.0,-16.433,-18.603,0.0,-19.317,40.39,-948.09,-2.059,-4.55
-4.0,469.0,27784.0,450.0,-7.692,-11.352,0.0,3.416,-50.628,-989.21,0.101,0.92
14.0,463.0,27781.0,450.0,-29.605,9.113,0.0,117.453,-83.504,-1015.19,-2.735,1.42
15.0,444.0,27781.0,450.0,-39.293,1.65,0.0,78.279,20.191,-977.12,-1.799,-0.73
-3.0,428.0,27779.0,450.0,-17.845,-7.957,0.0,-44.439,32.975,-968.14,-0.931,-0.78
6.0,437.0,27778.0,452.0,-8.09,7.09,0.0,11.141,-88.873,-1000.12,0.281,2.99
19.0,458.0,27778.0,452.0,-30.711,18.038,0.0,138.878,-79.962,-993.93,2.694,-0.28
24.0,434.0,27775.0,452.0,-32.364,-1.258,0.0,64.329,38.084,-981.84,-2.157,0.35
4.0,435.0,27780.0,452.0,-1.684,-9.369,0.0,-67.748,7.589,-987.03,1.694,-0.4
5.0,453.0,27774.0,452.0,0.451,11.223,0.0,33.838,-105.663,-991.43,1.357,0.58
23.0,465.0,27776.0,452.0,-25.706,17.73,0.0,148.632,-58.703,-1006.25,1.842,0.23
3.0,440.0,27775.0,452.0,-14.988,-0.331,0.0,10.718,38.465,-1006.14,-2.622,-2.73
-17.0,451.0,27773.0,452.0,15.942,-2.144,0.0,-73.93,-25.157,-982.08,2.645,-0.31
-21.0,474.0,27772.0,450.0,1.237,15.462,0.0,97.55,-103.713,-991.74,2.532,-2.46
10.0,461.0,27773.0,450.0,-22.485,9.879,0.0,141.786,-17.976,-1020.46,-1.921,3.28
-25.0,436.0,27772.0,450.0,1.059,-11.415,0.0,-41.446,45.927,-1000.85,-2.234,-4.4
-30.0,451.0,27772.0,450.0,20.664,-6.585,0.0,-37.09,-49.953,-966.93,2.658,1.57
-12.0,466.0,27773.0,450.0,-7.838,9.703,0.0,150.106,-99.354,-1005.04,1.018,0.3
-15.0,464.0,27773.0,450.0,-22.099,-1.461,0.0,103.358,7.781,-1021.16,1.165,-2.54
-47.0,453.0,27773.0,450.0,6.598,-18.827,0.0,-65.419,38.931,-959.37,0.311,-2.87
-52.0,477.0,27777.0,450.0,10.749,-5.914,0.0,20.762,-75.949,-948.89,3.552,-0.26
-31.0,497.0,27775.0,449.0,-20.888,9.313,0.0,165.251,-92.033,-1025.37,2.253,0.36
-31.0,490.0,27777.0,449.0,-22.111,-6.375,0.0,51.107,28.586,-1003.95,0.849,-0.26
-61.0,494.0,27776.0,449.0,5.897,-18.387,0.0,-68.011,21.653,-919.92,2.768,-2.32
-40.0,518.0,27772.0,449.0,-2.239,2.158,0.0,65.977,-105.266,-970.55,2.668,3.65
-28.0,553.0,27772.0,449.0,-33.211,13.9,0.0,154.735,-72.335,-1041.19,5.884,-1.32
-41.0,541.0,27770.0,449.0,-24.866,-5.336,0.0,9.137,48.333,-981.47,0.539,-1.32
-65.0,540.0,27773.0,449.0,-3.999,-10.526,0.0,-46.35,0.873,-943.43,1.24,-1.95
-67.0,546.0,27770.0,449.0,-22.552,11.438,0.0,105.496,-100.104,-1026.05,-0.824,-2.23
-49.0,544.0,27773.0,448.0,-43.577,12.85,0.0,124.845,-27.343,-1034.63,0.105,1.0
-67.0,522.0,27770.0,448.0,-25.942,-3.5,0.0,-23.019,44.542,-953.6,-1.812,-1.56
-62.0,553.0,27768.0,448.0,-13.523,3.274,0.0,-10.526,-41.451,-965.77,6.298,2.77
-54.0,587.0,27769.0,448.0,-35.381,19.8,0.0,132.06,-96.474,-1038.33,4.992,-1.23
-42.0,571.0,27766.0,448.0,-46.92,11.562,0.0,100.715,-3.819,-996.02,-1.997,0.64
-93.0,557.0,27765.0,448.0,-25.39,-4.922,0.0,-28.855,34.152,-942.25,-0.417,-7.72
-101.0,572.0,27766.0,448.0,-15.209,7.141,0.0,4.938,-62.399,-999.62,2.3,-0.31
-85.0,575.0,27759.0,448.0,-33.92,23.358,0.0,118.185,-85.612,-1035.39,-0.869,0.71
-91.0,570.0,27763.0,448.0,-38.367,11.403,0.0,69.127,21.239,-978.69,0.878,-2.14
-124.0,564.0,27759.0,448.0,-12.568,-6.32,0.0,-39.994,30.67,-964.87,1.222,-3.71
-122.0,578.0,27760.0,448.0,-6.21,6.671,0.0,26.825,-85.761,-1014.63,1.28,0.85
-123.0,594.0,27761.0,448.0,-28.718,14.222,0.0,141.951,-70.293,-1015.46,2.284,-3.38
-134.0,563.0,27759.0,448.0,-28.17,-9.325,0.0,58.845,52.967,-983.24,-3.208,-2.66
-164.0,542.0,27762.0,448.0,0.396,-20.237,0.0,-58.311,21.871,-993.03,-2.176,-2.74
-169.0,541.0,27757.0,448.0,-0.693,-0.495,0.0,48.945,-97.922,-1013.29,-2.12,-1.23
-156.0,534.0,27759.0,448.0,-27.002,2.989,0.0,152.801,-41.689,-1008.72,-1.364,-1.01
-182.0,490.0,27754.0,449.0,-20.0,-17.363,0.0,19.898,53.924,-1011.82,-5.77,-4.37
-200.0,491.0,27753.0,449.0,7.855,-16.923,0.0,-65.582,-28.909,-996.78,0.52,-0.15
-214.0,512.0,27750.0,449.0,-5.037,3.404,0.0,98.578,-109.984,-1001.2,1.908,-4.51
-181.0,502.0,27749.0,449.0,-26.122,0.726,0.0,150.346,-22.245,-1029.78,-1.409,2.92
-214.0,479.0,27747.0,449.0,0.209,-15.978,0.0,-33.167,36.539,-1013.0,-2.182,-4.12
-211.0,494.0,27746.0,449.0,24.056,-7.606,0.0,-36.118,-57.419,-976.66,2.452,3.16
-196.0,506.0,27745.0,449.0,-0.735,10.306,0.0,151.236,-100.821,-1007.25,0.363,-0.48
-190.0,499.0,27744.0,449.0,-13.783,2.423,0.0,100.585,3.548,-1033.63,-0.047,-0.65
-226.0,485.0,27742.0,448.0,16.6,-10.157,0.0,-70.739,26.851,-980.17,-0.71,-3.57
-229.0,501.0,27743.0,448.0,20.836,5.671,0.0,21.138,-82.874,-964.23,1.76,0.04
-197.0,497.0,27741.0,448.0,-13.56,20.564,0.0,163.379,-82.955,-1038.25,-2.066,2.55
-204.0,473.0,27740.0,448.0,-12.309,3.525,0.0,34.509,39.981,-1020.52,-2.412,-1.1
-218.0,459.0,27741.0,448.0,15.667,-6.855,0.0,-75.699,21.532,-936.38,-0.744,1.04
-195.0,466.0,27735.0,448.0,2.637,15.563,0.0,78.166,-107.239,-988.27,-0.855,3.44
-176.0,482.0,27736.0,448.0,-25.506,22.903,0.0,144.931,-64.756,-1052.58,2.278,0.46
-181.0,448.0,27732.0,448.0,-12.303,0.828,0.0,-10.453,51.664,-978.24,-3.747,0.56
-198.0,444.0,27734.0,446.0,7.905,-3.779,0.0,-45.807,-8.366,-944.17,0.017,-0.5
-190.0,447.0,27733.0,446.0,-10.108,19.939,0.0,105.236,-110.311,-1029.16,-1.671,-0.36
-157.0,439.0,27733.0,446.0,-29.193,21.613,0.0,118.522,-32.444,-1029.08,-1.495,4.17
-180.0,409.0,27731.0,446.0,-11.303,4.681,0.0,-23.406,42.749,-948.67,-3.35,-2.49
-164.0,429.0,27729.0,446.0,4.254,7.109,0.0,-13.144,-46.836,-964.61,3.756,5.05
-147.0,450.0,27726.0,446.0,-13.71,22.774,0.0,116.385,-102.239,-1034.35,2.006,0.85
-125.0,429.0,27725.0,446.0,-23.935,11.434,0.0,93.615,-0.007,-996.48,-2.831,2.84
-150.0,399.0,27724.0,446.0,-7.408,-6.436,0.0,-16.576,40.436,-947.74,-3.489,-2.98
-149.0,395.0,27724.0,449.0,0.168,3.098,0.0,11.836,-62.363,-998.96,-1.572,1.24
-123.0,382.0,27721.0,449.0,-18.369,16.523,0.0,114.944,-83.319,-1029.69,-4.197,2.69
-121.0,360.0,27725.0,449.0,-24.849,1.573,0.0,74.802,25.749,-974.38,-2.24,-0.46
-133.0,343.0,27725.0,449.0,-0.678,-14.592,0.0,-36.022,25.783,-963.36,-1.518,0.14
-117.0,345.0,27726.0,449.0,8.307,0.516,0.0,14.094,-93.842,-1005.86,-1.379,4.12
-96.0,354.0,27729.0,449.0,-14.606,9.662,0.0,140.237,-77.387,-1001.37,0.427,1.07
-85.0,318.0,27725.0,449.0,-20.733,-8.798,0.0,74.337,37.887,-977.86,-4.818,1.32
-100.0,301.0,27728.0,449.0,6.941,-16.927,0.0,-61.035,5.218,-980.92,-1.98,0.36
-85.0,307.0,27722.0,444.0,6.737,3.414,0.0,39.258,-107.139,-992.56,-1.255,3.18
-55.0,309.0,27723.0,444.0,-23.372,9.046,0.0,161.768,-57.581,-999.55,-0.358,2.05
-71.0,276.0,27721.0,444.0,-19.962,-7.7,0.0,25.391,34.044,-998.36,-4.266,-2.52
-76.0,283.0,27720.0,444.0,6.405,-6.468,0.0,-70.432,-30.808,-978.97,1.644,2.66
-88.0,304.0,27720.0,444.0,-12.893,11.856,0.0,103.389,-101.416,-987.92,1.969,-4.13
-44.0,297.0,27720.0,444.0,-40.503,9.114,0.0,151.961,-20.966,-1013.75,-0.827,5.21
-63.0,282.0,27721.0,444.0,-16.77,-6.436,0.0,-44.547,32.898,-994.35,-0.928,-0.94
-66.0,307.0,27720.0,444.0,2.252,1.597,0.0,-37.166,-55.499,-963.43,4.327,2.07
-33.0,328.0,27717.0,445.0,-30.229,22.325,0.0,158.027,-100.06,-1006.02,2.172,2.83
-31.0,327.0,27716.0,445.0,-45.843,16.152,0.0,105.136,-0.644,-1030.97,0.958,-1.48
-66.0,314.0,27711.0,445.0,-16.515,1.707,0.0,-71.122,36.453,-973.21,-0.306,-3.21
-69.0,332.0,27712.0,445.0,-9.602,14.589,0.0,14.056,-69.362,-963.4,2.567,0.35
-40.0,347.0,27711.0,445.0,-39.087,32.02,0.0,159.637,-94.601,-1037.03,1.146,2.06
-45.0,338.0,27712.0,445.0,-36.009,18.843,0.0,41.01,21.632,-1017.73,0.088,-0.84
-66.0,332.0,27714.0,445.0,-5.496,4.367,0.0,-72.892,33.811,-934.72,0.984,-0.24
-43.0,342.0,27712.0,445.0,-10.726,20.372,0.0,69.58,-88.43,-982.05,0.244,3.62
-28.0,369.0,27715.0,443.0,-35.978,31.164,0.0,154.234,-75.323,-1048.01,4.163,-0.41
-26.0,342.0,27714.0,443.0,-24.612,11.177,0.0,16.903,44.961,-979.13,-2.647,1.15
-50.0,332.0,27717.0,443.0,-2.64,0.407,0.0,-37.641,7.105,-947.15,-0.578,-1.99
-45.0,333.0,27718.0,443.0,-16.207,17.157,0.0,96.965,-99.93,-1024.42,-2.034,-0.61
-29.0,313.0,27719.0,443.0,-34.106,14.677,0.0,121.485,-30.05,-1019.14,-3.777,0.67
-48.0,280.0,27720.0,443.0,-14.725,-8.354,0.0,-11.612,50.443,-952.53,-3.752,-1.95
-51.0,293.0,27719.0,443.0,1.583,-7.536,0.0,-8.649,-35.16,-975.97,2.531,1.07
-34.0,309.0,27718.0,443.0,-15.438,8.92,0.0,119.746,-99.588,-1028.05,1.151,0.91
-18.0,287.0,27717.0,444.0,-27.552,0.32,0.0,108.182,-5.707,-985.02,-3.379,1.15
-52.0,259.0,27716.0,444.0,-11.49,-20.653,0.0,-11.84,50.654,-938.07,-2.869,-4.96
-52.0,265.0,27717.0,444.0,-0.315,-14.157,0.0,0.154,-50.83,-977.38,0.747,1.62
-38.0,271.0,27713.0,444.0,-19.326,3.105,0.0,118.197,-98.319,-1007.93,-0.974,0.26
-29.0,262.0,27718.0,444.0,-30.724,-8.29,0.0,94.159,15.945,-962.03,-0.205,0.35
-62.0,246.0,27715.0,444.0,-9.122,-25.046,0.0,-35.267,43.865,-953.07,-0.662,-3.96
-52.0,257.0,27719.0,444.0,1.057,-9.648,0.0,0.699,-78.976,-989.61,0.761,3.38
-44.0,277.0,27720.0,444.0,-26.652,5.488,0.0,145.242,-79.388,-989.23,2.692,-1.66
-31.0,256.0,27717.0,444.0,-36.361,-11.28,0.0,85.327,43.376,-978.91,-1.819,1.3
-53.0,241.0,27722.0,444.0,-8.623,-20.221,0.0,-63.218,20.158,-987.71,-1.245,-0.86
-41.0,256.0,27716.0,444.0,-8.364,1.845,0.0,35.434,-102.095,-994.51,0.746,2.72
-15.0,262.0,27718.0,444.0,-43.964,12.287,0.0,174.634,-56.779,-1000.57,0.548,1.02
-21.0,236.0,27716.0,444.0,-42.985,-4.017,0.0,42.563,47.339,-1005.37,-2.454,-1.25
-39.0,244.0,27712.0,444.0,-12.575,-2.655,0.0,-78.499,-16.39,-981.22,2.123,0.43
-48.0,267.0,27712.0,444.0,-23.985,18.563,0.0,85.693,-102.042,-977.19,2.37,-3.0
-14.0,254.0,27712.0,444.0,-51.761,18.163,0.0,158.41,-24.561,-1013.86,-2.368,3.0
-38.0,225.0,27710.0,445.0,-29.251,0.797,0.0,-33.66,45.113,-1003.8,-3.177,-2.21
-42.0,238.0,27710.0,445.0,-3.797,6.21,0.0,-48.051,-41.713,-962.85,2.362,2.29
-15.0,245.0,27706.0,445.0,-30.004,25.012,0.0,150.815,-99.326,-1002.42,-0.794,1.98
-10.0,237.0,27706.0,445.0,-43.511,17.149,0.0,111.933,0.075,-1036.36,-0.4,-1.2
-48.0,218.0,27703.0,445.0,-11.282,0.263,0.0,-68.547,41.098,-978.42,-1.481,-3.8
-51.0,232.0,27705.0,445.0,-2.65,12.072,0.0,12.601,-74.943,-959.66,1.456,0.41
-33.0,241.0,27703.0,445.0,-32.649,28.513,0.0,166.534,-100.069,-1029.1,-0.373,-0.32
-33.0,220.0,27703.0,445.0,-30.031,11.423,0.0,47.959,28.574,-1009.32,-2.14,-0.05
-73.0,202.0,27703.0,443.0,5.668,-4.854,0.0,-79.549,31.355,-931.57,-1.47,-4.08
-52.0,216.0,27701.0,443.0,3.793,12.597,0.0,56.527,-98.239,-974.19,0.692,3.78
-45.0,239.0,27703.0,443.0,-20.926,23.05,0.0,151.08,-78.657,-1034.14,3.037,-1.88
-45.0,215.0,27700.0,443.0,-13.528,0.127,0.0,21.706,47.216,-969.38,-2.188,0.69
-70.0,204.0,27703.0,443.0,7.251,-11.023,0.0,-36.769,10.933,-947.44,-0.651,-2.34
-68.0,203.0,27703.0,443.0,-5.461,7.202,0.0,90.044,-103.535,-1026.09,-2.426,-1.14
-46.0,183.0,27703.0,443.0,-24.08,7.097,0.0,120.556,-38.107,-1025.83,-4.176,1.96
-70.0,150.0,27705.0,443.0,-10.952,-13.4,0.0,-2.183,53.716,-961.79,-3.936,-3.19
-64.0,171.0,27703.0,443.0,3.437,-9.928,0.0,-13.938,-33.641,-974.28,4.208,3.01
-46.0,192.0,27700.0,443.0,-14.277,12.384,0.0,110.317,-112.522,-1033.64,1.607,1.46
-18.0,185.0,27701.0,443.0,-30.486,4.189,0.0,109.268,-10.69,-1002.17,-0.596,3.51
-42.0,159.0,27698.0,443.0,-15.746,-16.489,0.0,-9.376,44.619,-969.14,-2.709,-3.02
-41.0,160.0,27699.0,443.0,-4.67,-8.011,0.0,-1.757,-63.983,-1006.83,-0.888,1.86
-18.0,164.0,27694.0,443.0,-26.714,13.715,0.0,120.461,-97.727,-1024.82,-1.403,2.1
-9.0,153.0,27697.0,443.0,-42.721,4.268,0.0,106.695,18.626,-987.72,-0.55,-0.18
-33.0,142.0,27694.0,443.0,-23.701,-7.649,0.0,-28.756,33.753,-980.19,0.03,-2.43
-21.0,163.0,27693.0,443.0,-12.823,8.658,0.0,-1.363,-88.591,-1004.86,2.281,3.97
-25.0,194.0,27694.0,443.0,-39.253,20.387,0.0,146.019,-78.306,-1001.06,4.73,-4.02
-11.0,176.0,27691.0,443.0,-48.271,1.529,0.0,87.89,40.789,-990.18,-1.075,1.42
-34.0,172.0,27694.0,443.0,-19.291,-7.82,0.0,-63.203,11.747,-982.6,0.615,-1.1
-22.0,188.0,27690.0,443.0,-18.345,13.809,0.0,45.721,-96.438,-980.49,0.974,2.41
10.0,184.0,27690.0,443.0,-50.097,19.664,0.0,179.153,-43.091,-995.4,-1.086,2.19
-5.0,150.0,27690.0,443.0,-41.243,1.713,0.0,28.793,51.348,-1008.07,-3.979,-2.66
-29.0,156.0,27688.0,443.0,-8.229,-1.247,0.0,-75.381,-14.964,-981.8,1.712,-0.74
-34.0,179.0,27691.0,445.0,-23.867,15.648,0.0,107.445,-94.672,-978.87,2.525,-3.06
-3.0,176.0,27696.0,445.0,-50.57,12.361,0.0,160.581,-20.837,-1021.18,-0.155,2.41
-32.0,158.0,27697.0,445.0,-24.753,-6.538,0.0,-41.105,44.778,-1003.31,-1.222,-2.8
-44.0,174.0,27702.0,445.0,4.347,-3.666,0.0,-49.249,-34.258,-954.48,3.132,0.69
-20.0,184.0,27700.0,445.0,-17.505,14.042,0.0,144.958,-96.474,-1003.41,0.018,1.43
-13.0,181.0,27703.0,445.0,-28.701,8.311,0.0,112.333,-9.726,-1040.01,0.03,-0.71
-44.0,165.0,27700.0,445.0,-1.561,-10.897,0.0,-55.369,43.895,-972.76,-0.749,-2.89
-43.0,177.0,27699.0,445.0,4.134,-3.392,0.0,18.879,-55.432,-954.82,1.579,1.08
-34.0,193.0,27698.0,443.0,-25.165,13.541,0.0,159.371,-97.915,-1035.4,1.227,-1.93
-32.0,184.0,27697.0,443.0,-26.09,-0.284,0.0,56.969,19.042,-1023.78,-0.148,0.01
-68.0,173.0,27698.0,443.0,0.425,-16.872,0.0,-54.876,37.544,-943.82,0.114,-3.94
-37.0,197.0,27699.0,443.0,-4.915,-0.291,0.0,62.247,-89.53,-985.53,2.743,5.65
-27.0,227.0,27702.0,443.0,-29.463,11.351,0.0,143.583,-77.868,-1043.98,4.668,-1.15
-18.0,218.0,27704.0,443.0,-25.625,-7.199,0.0,33.201,45.995,-985.82,0.656,2.13
-43.0,225.0,27704.0,443.0,-7.67,-16.15,0.0,-24.572,8.664,-961.86,2.74,-2.62
-36.0,247.0,27706.0,443.0,-17.093,3.523,0.0,85.736,-107.042,-1026.99,2.182,0.08
-11.0,243.0,27703.0,443.0,-37.931,9.667,0.0,124.961,-38.696,-1025.82,-1.133,2.42
-34.0,230.0,27707.0,443.0,-28.557,-8.679,0.0,11.681,58.428,-964.0,0.381,-3.35
-41.0,262.0,27708.0,443.0,-11.639,-3.277,0.0,-23.931,-29.006,-978.81,6.67,0.72
-25.0,297.0,27707.0,443.0,-23.54,22.387,0.0,85.576,-114.609,-1021.57,4.263,2.02
-10.0,308.0,27714.0,443.0,-39.005,22.652,0.0,119.388,-12.722,-996.4,2.99,0.71
-27.0,290.0,27713.0,443.0,-25.25,5.274,0.0,7.532,59.458,-981.91,-0.592,-2.25
-31.0,302.0,27718.0,443.0,-6.331,16.315,0.0,-20.463,-47.634,-1004.7,1.877,1.47
-19.0,319.0,27718.0,443.0,-24.106,36.402,0.0,109.023,-94.784,-1008.52,1.469,0.34
3.0,311.0,27722.0,444.0,-42.109,26.25,0.0,118.786,18.592,-991.74,0.213,2.27
-32.0,292.0,27723.0,444.0,-21.001,11.768,0.0,-32.32,41.689,-997.51,-1.37,-4.69
-25.0,309.0,27724.0,444.0,-8.635,26.396,0.0,-15.914,-73.774,-998.68,2.003,3.43
-42.0,326.0,27726.0,444.0,-37.459,38.465,0.0,146.633,-70.859,-996.15,2.353,-6.61
-28.0,312.0,27727.0,444.0,-47.998,22.186,0.0,86.078,38.935,-1002.23,-0.499,1.46
-63.0,303.0,27730.0,444.0,-12.316,9.367,0.0,-77.819,13.295,-994.52,-0.342,-3.08
-52.0,321.0,27730.0,444.0,-8.508,22.135,0.0,34.866,-84.791,-976.19,2.069,2.7
-30.0,321.0,27733.0,444.0,-41.804,23.051,0.0,184.954,-42.959,-1005.52,-0.429,-0.22
-51.0,303.0,27734.0,443.0,-33.36,3.753,0.0,38.213,38.357,-1025.74,-1.248,-3.81
-82.0,308.0,27733.0,443.0,2.682,-0.473,0.0,-78.906,-13.295,-978.47,1.781,-2.17
-90.0,325.0,27737.0,443.0,-8.124,14.573,0.0,95.045,-89.993,-976.66,1.536,-3.25
-69.0,317.0,27738.0,443.0,-33.067,13.554,0.0,158.391,-32.083,-1034.24,-1.574,0.49
-102.0,292.0,27740.0,443.0,-9.297,-5.627,0.0,-30.695,43.393,-1009.65,-2.382,-4.15
-126.0,297.0,27741.0,443.0,14.945,-6.319,0.0,-44.456,-22.321,-942.31,1.269,-1.82
-99.0,300.0,27739.0,443.0,-10.141,10.838,0.0,145.431,-95.029,-993.39,-1.495,2.04
-98.0,292.0,27740.0,443.0,-26.087,7.639,0.0,112.226,-17.788,-1040.34,-0.93,-1.82
-121.0,267.0,27738.0,442.0,-0.276,-9.702,0.0,-50.805,41.679,-969.01,-2.59,-1.49
-119.0,278.0,27736.0,442.0,4.291,-1.716,0.0,23.261,-52.931,-940.43,1.457,0.94
-114.0,292.0,27733.0,442.0,-25.242,16.995,0.0,149.968,-99.87,-1017.71,0.752,-2.25
-100.0,281.0,27733.0,442.0,-27.466,6.124,0.0,52.795,11.454,-1012.7,-0.743,2.53
-137.0,273.0,27732.0,442.0,-6.689,-8.7,0.0,-40.275,33.285,-942.02,0.45,-4.63
-109.0,301.0,27731.0,442.0,-12.735,8.294,0.0,59.074,-89.15,-968.28,3.743,4.97
-113.0,323.0,27733.0,442.0,-34.159,24.865,0.0,120.534,-86.282,-1018.37,2.825,-3.07
-106.0,316.0,27734.0,442.0,-31.443,8.411,0.0,32.284,40.285,-973.69,0.888,1.8
-131.0,309.0,27733.0,441.0,-19.594,-0.966,0.0,-6.483,19.947,-949.42,0.478,-3.46
-121.0,330.0,27736.0,441.0,-25.996,21.511,0.0,75.428,-98.842,-1003.11,1.957,0.98
-106.0,331.0,27735.0,441.0,-39.467,28.683,0.0,107.58,-47.863,-1017.2,-0.279,0.93
-139.0,314.0,27738.0,441.0,-33.049,10.49,0.0,32.974,52.261,-965.98,-0.468,-6.11
-142.0,324.0,27738.0,441.0,-18.351,13.131,0.0,-4.123,-23.429,-969.65,2.219,0.92
-143.0,343.0,27741.0,441.0,-23.204,31.902,0.0,72.372,-99.578,-1015.13,1.729,-0.95
-131.0,338.0,27743.0,441.0,-36.632,25.802,0.0,109.943,-7.571,-998.95,-0.063,0.16
-140.0,318.0,27744.0,441.0,-28.16,8.715,0.0,27.018,40.584,-989.21,-1.752,-1.1
-165.0,323.0,27747.0,444.0,-9.861,19.099,0.0,-11.246,-61.556,-1003.73,0.071,-3.35
-154.0,315.0,27747.0,444.0,-18.882,34.195,0.0,91.545,-86.328,-1000.35,-3.189,0.66
-151.0,295.0,27753.0,444.0,-34.864,22.313,0.0,124.659,16.227,-999.73,-2.38,-1.83
-181.0,277.0,27753.0,444.0,-18.518,12.91,0.0,0.387,12.272,-1012.02,-2.088,-4.58
-181.0,296.0,27753.0,444.0,-0.209,26.944,0.0,-16.595,-90.997,-993.41,1.809,1.8
-194.0,312.0,27756.0,444.0,-16.733,34.267,0.0,117.021,-70.899,-980.07,2.094,-4.85
-175.0,297.0,27756.0,444.0,-27.756,17.665,0.0,96.386,22.837,-1013.32,-1.175,1.99
-198.0,286.0,27758.0,444.0,-2.625,9.004,0.0,-46.118,-1.047,-1015.31,-1.169,-1.52
-188.0,298.0,27757.0,441.0,2.022,20.508,0.0,25.13,-79.157,-974.98,0.927,2.48
-177.0,285.0,27757.0,441.0,-26.677,21.022,0.0,159.395,-40.254,-995.6,-2.847,-1.51
-195.0,256.0,27760.0,441.0,-24.463,5.055,0.0,46.897,30.719,-1036.08,-3.716,-3.69
-224.0,233.0,27757.0,441.0,3.939,2.256,0.0,-61.422,-14.953,-993.64,-4.137,-2.27
-223.0,226.0,27762.0,441.0,-6.518,14.108,0.0,83.506,-73.556,-957.22,-2.752,-1.24
-196.0,204.0,27762.0,441.0,-31.797,12.975,0.0,141.352,-26.22,-1018.39,-4.127,2.34
-204.0,183.0,27765.0,441.0,-14.174,0.801,0.0,-21.74,19.54,-1021.47,-2.586,0.54
-212.0,185.0,27765.0,441.0,1.962,3.36,0.0,-24.557,-34.449,-940.51,0.266,0.49
-167.0,195.0,27765.0,442.0,-23.492,16.264,0.0,138.409,-77.105,-969.97,0.546,6.01
-161.0,195.0,27765.0,442.0,-38.205,13.911,0.0,107.158,-21.335,-1037.44,0.276,-0.96
-167.0,187.0,27765.0,442.0,-16.663,2.732,0.0,-34.014,16.005,-984.73,-0.059,1.35
-173.0,201.0,27765.0,442.0,-11.314,8.612,0.0,21.5,-47.978,-937.03,2.269,-0.34
-155.0,205.0,27765.0,442.0,-32.919,23.05,0.0,123.92,-75.958,-1006.28,-0.508,0.94
-146.0,188.0,27769.0,442.0,-32.048,16.06,0.0,42.612,4.257,-1026.46,-2.257,1.85
-160.0,173.0,27769.0,442.0,-14.82,5.113,0.0,-24.872,24.099,-957.23,-1.251,-0.59
-127.0,180.0,27767.0,442.0,-22.051,16.896,0.0,66.558,-63.189,-967.13,0.368,5.94
-136.0,180.0,27768.0,440.0,-34.724,26.473,0.0,102.261,-62.545,-1031.46,-0.981,-3.61
-117.0,163.0,27766.0,440.0,-27.124,12.478,0.0,25.506,28.938,-1000.13,-1.503,4.36
-137.0,149.0,27763.0,440.0,-18.614,5.95,0.0,19.245,3.879,-961.65,-1.61,-3.23
-123.0,156.0,27764.0,440.0,-25.95,22.073,0.0,79.905,-85.414,-1005.62,-0.411,1.68
-116.0,141.0,27762.0,440.0,-30.245,23.813,0.0,71.125,-34.99,-1016.44,-3.149,0.51
-146.0,125.0,27767.0,440.0,-22.685,7.754,0.0,24.82,36.979,-975.07,-1.157,-5.28
-149.0,118.0,27765.0,440.0,-15.874,11.607,0.0,28.576,-40.85,-983.32,-1.693,-0.12
-152.0,133.0,27773.0,440.0,-18.258,26.738,0.0,62.894,-89.016,-1012.94,1.033,-1.19
-154.0,124.0,27776.0,442.0,-21.967,17.834,0.0,69.557,1.455,-992.88,-0.752,-1.04
-169.0,110.0,27778.0,442.0,-16.5,3.212,0.0,35.627,27.096,-985.3,-0.842,-2.69
-193.0,118.0,27781.0,442.0,-6.828,12.69,0.0,15.781,-63.93,-1006.41,0.335,-3.86
-191.0,115.0,27781.0,442.0,-9.891,21.079,0.0,63.135,-64.47,-997.19,-1.556,-0.34
-211.0,93.0,27782.0,442.0,-20.079,8.635,0.0,92.408,19.476,-987.5,-2.827,-5.51
-214.0,77.0,27780.0,442.0,-13.633,3.501,0.0,29.423,-3.971,-1010.45,-2.526,-0.11
-232.0,80.0,27777.0,442.0,-2.221,15.928,0.0,5.921,-73.191,-995.48,-0.695,-2.49
-219.0,71.0,27776.0,442.0,-11.561,16.143,0.0,85.166,-29.728,-961.82,-1.97,1.22
-199.0,55.0,27777.0,443.0,-22.176,2.991,0.0,91.224,19.398,-999.4,-1.622,2.44
-225.0,54.0,27774.0,443.0,-9.518,5.203,0.0,1.304,-36.646,-1020.67,-0.368,-3.64
-211.0,66.0,27773.0,443.0,-5.593,14.897,0.0,30.65,-68.444,-966.91,1.112,3.14
-235.0,64.0,27776.0,443.0,-26.723,11.79,0.0,120.837,-13.924,-966.89,0.124,-7.29
-235.0,60.0,27778.0,443.0,-28.71,5.103,0.0,53.013,2.403,-1026.66,0.218,-0.27
-256.0,58.0,27777.0,443.0,-9.222,11.158,0.0,-33.964,-46.275,-998.24,-1.039,-1.81
-253.0,72.0,27781.0,443.0,-14.728,19.574,0.0,58.562,-59.077,-941.5,1.73,0.17
-234.0,65.0,27779.0,443.0,-32.76,19.504,0.0,120.4,-24.762,-997.0,-1.213,1.32
-258.0,69.0,27781.0,441.0,-21.541,16.74,0.0,9.731,-13.632,-1038.94,1.3,-3.87
-267.0,77.0,27778.0,441.0,-8.605,21.054,0.0,-2.965,-41.142,-964.37,1.216,-0.26
-263.0,83.0,27780.0,441.0,-28.52,24.704,0.0,120.041,-46.404,-953.54,0.68,-1.68
-269.0,76.0,27779.0,441.0,-38.679,21.436,0.0,90.135,-20.003,-1039.59,-1.225,-2.69
-287.0,74.0,27779.0,441.0,-20.211,16.936,0.0,-22.017,-13.259,-1014.5,0.163,-1.42
-312.0,79.0,27779.0,441.0,-16.04,22.311,0.0,38.959,-42.865,-938.43,0.509,-4.97
-292.0,77.0,27779.0,441.0,-32.763,28.077,0.0,122.496,-47.254,-989.85,-0.933,1.41
-306.0,73.0,27781.0,441.0,-26.898,23.414,0.0,38.5,-7.53,-1039.73,-0.176,-2.75
-312.0,64.0,27778.0,441.0,-11.252,19.435,0.0,-4.522,-7.895,-970.83,-1.113,0.45
-299.0,66.0,27777.0,441.0,-20.22,25.583,0.0,89.037,-53.855,-955.82,-0.263,0.92
-312.0,56.0,27776.0,441.0,-28.833,28.314,0.0,92.241,-43.119,-1026.12,-2.562,-4.07
-315.0,35.0,27776.0,441.0,-16.642,17.152,0.0,11.379,12.283,-1017.04,-2.907,0.34
-340.0,20.0,27774.0,441.0,-12.084,11.735,0.0,32.967,-8.871,-958.75,-2.389,-4.74
-326.0,20.0,27773.0,441.0,-19.847,19.832,0.0,81.165,-61.397,-985.83,-0.968,1.49
-336.0,8.0,27773.0,441.0,-16.431,18.122,0.0,39.336,-25.525,-1017.05,-2.409,-1.86
-340.0,2.0,27774.0,441.0,-6.909,5.476,0.0,21.936,12.662,-980.33,0.077,-0.2
-338.0,-4.0,27769.0,441.0,-9.2,7.32,0.0,65.595,-40.116,-972.05,-1.697,-0.33
-339.0,6.0,27772.0,441.0,-8.794,14.279,0.0,55.784,-62.043,-1001.37,0.96,-0.73
-339.0,-6.0,27769.0,441.0,-6.299,7.613,0.0,31.764,-2.03,-1000.79,-1.753,0.38
-355.0,-11.0,27770.0,441.0,-9.918,1.199,0.0,55.563,0.441,-986.1,-0.041,-3.64
-349.0,-2.0,27767.0,441.0,-12.366,10.854,0.0,52.539,-61.976,-996.41,0.665,0.82
-347.0,-3.0,27768.0,441.0,-9.136,13.14,0.0,30.458,-36.851,-989.56,-0.429,0.72
-353.0,-14.0,27768.0,441.0,-10.803,2.387,0.0,57.616,18.67,-984.93,-0.703,-1.73
-328.0,-13.0,27766.0,441.0,-14.171,4.188,0.0,65.383,-27.076,-1008.56,0.094,4.37
-342.0,-7.0,27767.0,438.0,-7.262,15.224,0.0,25.007,-65.799,-997.89,0.024,-2.39
-317.0,-11.0,27765.0,438.0,-5.661,10.729,0.0,42.552,-10.694,-963.16,-0.412,4.95
-309.0,-14.0,27766.0,438.0,-14.743,1.695,0.0,86.006,8.245,-1000.96,0.684,0.3
-308.0,-8.0,27764.0,438.0,-13.117,7.064,0.0,43.033,-49.589,-1029.33,0.388,0.04
-301.0,4.0,27762.0,438.0,-3.836,12.68,0.0,11.616,-51.074,-964.35,1.802,2.38
-309.0,-4.0,27765.0,438.0,-9.636,4.643,0.0,72.44,4.029,-956.68,-0.629,-2.59
-290.0,-7.0,27767.0,438.0,-14.907,-0.34,0.0,70.731,-7.654,-1034.92,-0.121,2.95
-295.0,-14.0,27767.0,438.0,-2.959,5.336,0.0,0.897,-50.655,-1010.97,-1.991,0.24
-278.0,-17.0,27770.0,441.0,-0.194,4.776,0.0,37.345,-25.786,-932.8,-0.556,3.76
-265.0,-29.0,27769.0,441.0,-13.564,-2.429,0.0,102.941,1.321,-986.63,-1.511,0.63
-271.0,-21.0,27771.0,441.0,-11.781,-2.642,0.0,42.194,-26.468,-1038.5,1.515,-1.21
-279.0,-20.0,27769.0,441.0,-1.907,8.624,0.0,2.012,-38.506,-963.32,-0.1,-0.31
-285.0,-15.0,27774.0,441.0,-13.167,11.929,0.0,83.604,-11.602,-940.5,1.583,-2.5
-283.0,-12.0,27775.0,441.0,-23.863,16.222,0.0,86.996,-17.214,-1035.69,0.853,-1.17
-287.0,0.0,27777.0,441.0,-9.28,21.5,0.0,-3.32,-39.551,-1021.66,2.218,0.8
-300.0,13.0,27778.0,441.0,-4.881,23.91,0.0,31.056,-30.482,-931.36,2.468,-2.2
-271.0,17.0,27780.0,438.0,-19.641,22.637,0.0,107.307,-16.588,-977.73,1.273,3.7
-284.0,23.0,27781.0,438.0,-18.178,22.954,0.0,48.358,-22.365,-1051.2,1.25,-2.93
-286.0,28.0,27778.0,438.0,-7.253,22.418,0.0,11.687,-26.078,-995.73,1.108,0.63
-296.0,34.0,27779.0,438.0,-14.872,21.265,0.0,82.204,-23.242,-950.52,1.332,-3.15
-299.0,30.0,27777.0,438.0,-19.954,20.685,0.0,75.738,-24.981,-1015.28,-0.699,-1.67
-303.0,36.0,27777.0,438.0,-8.922,17.661,0.0,4.91,-16.797,-1036.03,1.565,0.38
-304.0,42.0,27776.0,438.0,-8.166,14.766,0.0,41.391,-15.716,-963.71,1.628,-0.14
-281.0,56.0,27775.0,438.0,-18.776,16.574,0.0,87.498,-33.414,-962.74,2.51,3.05
-301.0,60.0,27776.0,437.0,-12.239,18.307,0.0,29.655,-32.24,-1022.86,0.608,-3.51
-290.0,63.0,27778.0,437.0,-5.516,15.617,0.0,25.604,-15.005,-1003.11,1.203,2.6
-295.0,58.0,27777.0,437.0,-16.314,16.48,0.0,94.012,-28.149,-968.47,-1.174,-2.59
-292.0,65.0,27780.0,437.0,-16.304,20.184,0.0,55.198,-40.195,-995.91,1.074,0.23
-296.0,61.0,27782.0,437.0,-4.771,17.508,0.0,-0.323,-17.349,-1017.02,-0.519,0.53
-311.0,62.0,27785.0,437.0,-10.482,13.896,0.0,64.544,-12.097,-992.82,0.776,-3.82
-292.0,66.0,27784.0,437.0,-21.398,17.763,0.0,88.655,-40.817,-992.64,0.339,2.41
-299.0,64.0,27790.0,437.0,-5.058,15.892,0.0,12.837,-30.352,-1013.65,-0.48,-0.39
-298.0,56.0,27788.0,437.0,5.093,6.754,0.0,30.129,0.33,-1011.37,-0.689,0.54
-266.0,50.0,27786.0,437.0,-4.489,4.096,0.0,105.916,-21.466,-1004.39,-0.801,4.25
-281.0,50.0,27787.0,437.0,-2.949,8.534,0.0,45.612,-41.372,-1003.92,-0.52,-3.04
-263.0,42.0,27785.0,437.0,10.403,4.937,0.0,-3.615,-10.794,-989.16,-1.168,5.14
-274.0,51.0,27787.0,437.0,1.752,0.759,0.0,79.888,-6.473,-1007.55,2.59,-3.34
-252.0,61.0,27786.0,437.0,-7.882,8.077,0.0,88.213,-51.312,-1028.59,1.282,2.89
-267.0,71.0,27788.0,437.0,3.347,11.711,0.0,-4.453,-39.426,-983.73,1.544,-1.43
-271.0,70.0,27793.0,437.0,6.445,3.488,0.0,23.171,7.254,-968.62,1.029,-0.15
-245.0,71.0,27795.0,438.0,-10.236,3.973,0.0,102.57,-24.058,-1027.43,0.194,3.18
-251.0,72.0,27795.0,438.0,1.817,12.983,0.0,45.254,-57.032,-1023.33,-0.662,-1.11
-233.0,67.0,27797.0,438.0,24.427,8.539,0.0,-3.934,-6.655,-949.24,-0.212,5.06
-241.0,59.0,27796.0,438.0,25.539,1.658,0.0,73.048,5.682,-985.73,-0.579,-2.48
-215.0,75.0,27797.0,438.0,9.767,9.909,0.0,89.003,-55.086,-1054.29,2.388,3.59
-220.0,75.0,27796.0,438.0,14.307,14.315,0.0,13.55,-43.67,-989.26,-0.676,-0.05
-217.0,63.0,27801.0,438.0,13.617,3.287,0.0,32.56,17.2,-932.39,-0.842,1.08
-201.0,56.0,27802.0,438.0,-0.541,2.799,0.0,88.013,-20.162,-1026.8,-1.238,1.64
-194.0,59.0,27805.0,437.0,0.403,15.198,0.0,45.384,-69.72,-1049.56,-0.622,1.52
-198.0,51.0,27806.0,437.0,7.473,13.263,0.0,19.756,-17.54,-945.76,-1.299,-0.06
-174.0,41.0,27808.0,437.0,0.93,5.567,0.0,71.921,7.079,-965.19,-1.0,3.84
-179.0,49.0,27810.0,437.0,-5.181,13.751,0.0,67.197,-57.643,-1061.52,0.612,-1.75
-164.0,52.0,27807.0,437.0,-0.796,20.747,0.0,27.147,-57.081,-1001.76,-0.324,3.69
-179.0,49.0,27810.0,437.0,-3.075,11.132,0.0,52.233,7.266,-921.87,0.555,-3.2
-161.0,53.0,27811.0,437.0,-7.309,8.59,0.0,64.155,-16.84,-999.67,1.234,2.86
-154.0,68.0,27813.0,437.0,-2.059,19.199,0.0,27.41,-69.325,-1036.19,1.584,2.02
-130.0,77.0,27814.0,438.0,-3.096,17.819,0.0,50.406,-25.785,-940.89,1.948,4.53
-110.0,74.0,27816.0,438.0,-10.777,6.213,0.0,78.077,16.823,-931.02,0.838,3.0
-123.0,81.0,27817.0,438.0,-2.848,10.274,0.0,24.451,-38.23,-1018.99,0.998,-1.97
-100.0,92.0,27818.0,438.0,4.12,19.579,0.0,24.372,-61.799,-1003.02,1.083,5.38
-114.0,87.0,27819.0,438.0,-7.128,13.379,0.0,95.545,-3.184,-946.94,-0.082,-4.32
-90.0,90.0,27822.0,438.0,-6.464,7.569,0.0,49.184,-2.322,-974.01,1.451,4.65
-111.0,97.0,27822.0,438.0,11.701,16.488,0.0,-22.787,-59.569,-1016.81,0.256,-2.07
-93.0,111.0,27822.0,438.0,5.84,20.458,0.0,66.481,-43.945,-990.97,2.257,3.07
-84.0,95.0,27820.0,437.0,-9.859,13.334,0.0,108.032,1.67,-985.28,-2.241,-0.33
-89.0,93.0,27822.0,437.0,4.448,13.687,0.0,-7.01,-25.198,-1017.73,-0.143,0.72
-98.0,103.0,27820.0,437.0,13.387,22.009,0.0,7.819,-57.982,-1021.43,1.037,-0.43
-84.0,107.0,27820.0,437.0,-10.84,23.031,0.0,139.163,-32.432,-1004.69,0.661,-0.25
-92.0,109.0,27820.0,437.0,-13.103,16.759,0.0,58.586,-9.758,-997.71,0.984,-2.07
-114.0,115.0,27822.0,437.0,15.94,14.877,0.0,-68.481,-24.458,-997.67,1.212,-0.68
-109.0,126.0,27823.0,437.0,9.966,16.273,0.0,60.372,-36.878,-1001.22,2.07,0.51
-77.0,133.0,27821.0,437.0,-17.934,16.83,0.0,155.125,-28.979,-1009.1,1.277,2.98
-88.0,130.0,27825.0,435.0,-2.952,12.865,0.0,-6.546,-10.746,-987.19,0.166,-0.56
-91.0,132.0,27824.0,435.0,17.783,9.012,0.0,-37.64,-9.106,-977.08,0.908,2.15
-68.0,140.0,27822.0,435.0,-9.512,12.266,0.0,141.984,-35.431,-1013.11,1.417,1.39
-65.0,148.0,27822.0,435.0,-25.534,15.281,0.0,109.438,-36.105,-1014.87,1.384,-1.34
-75.0,147.0,27822.0,435.0,1.307,9.609,0.0,-58.149,-2.111,-958.31,0.57,1.48
-89.0,155.0,27822.0,435.0,4.193,6.709,0.0,26.551,-10.43,-965.1,2.364,-2.29
-46.0,176.0,27822.0,435.0,-24.038,16.762,0.0,154.304,-54.911,-1025.71,3.214,5.07
-69.0,174.0,27823.0,435.0,-16.403,19.41,0.0,21.56,-29.809,-995.29,-0.293,-3.75
-74.0,169.0,27825.0,434.0,8.729,9.683,0.0,-53.962,19.499,-933.01,0.627,2.37
-74.0,169.0,27824.0,434.0,-6.521,12.879,0.0,97.433,-32.092,-991.08,-0.255,-1.77
-65.0,184.0,27827.0,434.0,-25.613,26.658,0.0,120.781,-77.022,-1033.48,1.633,-0.6
-73.0,170.0,27827.0,434.0,-7.328,20.732,0.0,-22.801,-3.606,-951.81,-2.012,0.61
-100.0,159.0,27827.0,434.0,5.606,5.733,0.0,0.41,31.812,-936.83,-0.341,-3.74
-89.0,173.0,27827.0,434.0,-11.788,15.547,0.0,118.22,-61.873,-1029.71,1.854,-0.2
-105.0,172.0,27824.0,434.0,-15.038,27.366,0.0,69.055,-75.253,-1008.3,-1.744,-3.94
-147.0,147.0,27822.0,434.0,0.775,11.386,0.0,-11.494,29.127,-915.72,-3.041,-6.6
-153.0,140.0,27825.0,435.0,0.329,2.919,0.0,47.263,6.728,-965.15,-0.324,-1.17
-149.0,148.0,27820.0,435.0,-13.136,21.837,0.0,100.851,-100.979,-1030.94,-0.67,-1.18
-153.0,145.0,27819.0,435.0,-14.017,23.624,0.0,56.032,-40.792,-961.49,-0.956,-0.96
-183.0,127.0,27819.0,435.0,-3.697,1.073,0.0,19.955,49.367,-921.81,-1.08,-5.22
-196.0,137.0,27818.0,435.0,-1.65,4.563,0.0,48.842,-45.474,-1005.91,1.436,-2.71
-202.0,159.0,27817.0,435.0,-8.615,23.141,0.0,84.834,-109.108,-1023.91,1.791,-2.64
-212.0,147.0,27821.0,435.0,-13.171,11.019,0.0,70.37,13.591,-953.31,-1.127,-2.78
-222.0,133.0,27825.0,435.0,-4.269,-7.712,0.0,17.571,47.003,-973.0,-0.337,-1.18
-239.0,137.0,27824.0,437.0,4.457,9.401,0.0,13.939,-89.972,-1030.68,-1.136,-2.31
-212.0,147.0,27829.0,437.0,-7.905,23.428,0.0,95.895,-86.319,-1000.66,0.057,3.63
-216.0,119.0,27827.0,437.0,-17.698,4.3,0.0,89.008,48.493,-976.23,-2.96,-2.19
-225.0,107.0,27829.0,437.0,0.204,-2.86,0.0,-19.485,9.521,-1017.15,-1.249,0.31
-227.0,112.0,27827.0,437.0,5.673,20.715,0.0,22.499,-112.599,-1031.96,-1.752,0.11
-227.0,99.0,27829.0,437.0,-19.791,22.244,0.0,139.261,-37.859,-1010.64,-2.952,-3.01
-240.0,61.0,27827.0,437.0,-18.576,2.258,0.0,42.724,49.354,-1004.04,-4.952,-2.47
-258.0,64.0,27828.0,437.0,10.71,9.329,0.0,-72.861,-50.989,-1005.81,-0.285,0.03
-252.0,83.0,27827.0,436.0,0.767,28.523,0.0,79.439,-105.071,-1012.48,1.446,0.15
-225.0,69.0,27827.0,436.0,-27.893,18.672,0.0,161.022,3.776,-1019.76,-1.859,1.51
-250.0,51.0,27829.0,436.0,-4.239,5.864,0.0,-38.873,20.992,-999.95,-1.936,-2.26
-255.0,55.0,27831.0,436.0,20.37,18.641,0.0,-54.652,-77.101,-986.31,-0.961,2.21
-224.0,58.0,27829.0,436.0,-15.708,28.84,0.0,172.881,-63.21,-1030.84,-0.494,1.82
-213.0,39.0,27828.0,436.0,-34.76,17.153,0.0,121.131,21.063,-1035.36,-2.254,-0.17
-241.0,26.0,27828.0,436.0,3.328,11.17,0.0,-103.399,3.827,-978.67,-1.469,-0.82
-244.0,39.0,27828.0,436.0,9.402,20.948,0.0,14.754,-63.666,-987.08,1.253,0.33
-208.0,37.0,27829.0,436.0,-33.006,24.757,0.0,210.247,-44.345,-1046.75,-0.823,1.76
-221.0,7.0,27829.0,436.0,-25.074,14.114,0.0,25.3,12.74,-1017.74,-4.834,-2.02
-237.0,-2.0,27832.0,436.0,13.68,9.152,0.0,-104.942,-4.964,-960.07,-1.238,1.57
-223.0,-6.0,27829.0,436.0,-7.36,18.675,0.0,127.43,-59.344,-1009.19,-1.945,0.02
-204.0,-1.0,27833.0,436.0,-36.519,22.875,0.0,171.23,-42.486,-1042.09,0.494,-0.16
-228.0,-22.0,27834.0,436.0,-2.93,13.411,0.0,-71.134,11.213,-976.0,-2.852,-1.15
-246.0,-20.0,27837.0,436.0,15.549,8.661,0.0,-26.691,-8.291,-960.7,0.814,-1.23
-216.0,-1.0,27838.0,436.0,-20.429,20.891,0.0,193.941,-76.982,-1036.72,2.325,1.15
-221.0,-3.0,27841.0,435.0,-27.24,24.689,0.0,77.671,-43.811,-1021.52,-1.129,-2.1
-263.0,-21.0,27841.0,435.0,11.04,5.839,0.0,-91.048,35.131,-944.23,-1.581,-4.2
-255.0,-8.0,27842.0,435.0,8.528,2.436,0.0,56.894,-18.234,-982.46,2.878,1.23
-232.0,21.0,27844.0,435.0,-19.816,19.764,0.0,163.995,-101.311,-1052.72,3.486,0.56
-225.0,15.0,27844.0,435.0,-7.526,15.03,0.0,11.706,-20.12,-990.57,-0.952,2.45
-262.0,-7.0,27845.0,435.0,16.081,-2.671,0.0,-40.241,57.773,-941.21,-1.781,-4.71
-241.0,-7.0,27848.0,435.0,3.007,7.388,0.0,98.197,-46.547,-1016.44,-0.664,2.56
-241.0,0.0,27847.0,435.0,-10.454,28.936,0.0,106.396,-98.794,-1048.82,-0.918,-2.18
-254.0,-11.0,27849.0,435.0,6.033,13.913,0.0,-10.165,33.469,-971.52,-0.405,-0.85
-267.0,-8.0,27851.0,435.0,19.531,-3.838,0.0,-6.138,52.609,-963.05,3.134,-1.01
-254.0,14.0,27847.0,435.0,10.706,20.928,0.0,78.545,-112.112,-1024.78,1.754,1.48
-245.0,27.0,27850.0,435.0,2.174,34.952,0.0,81.984,-85.108,-1008.17,0.677,0.56
-258.0,-7.0,27848.0,435.0,8.303,8.634,0.0,22.845,77.879,-970.55,-3.602,-2.11
-257.0,-4.0,27850.0,435.0,17.185,1.027,0.0,11.192,4.178,-996.48,1.659,1.2
-266.0,20.0,27845.0,435.0,6.712,33.677,0.0,77.03,-142.921,-1032.75,1.142,-2.88
-245.0,17.0,27851.0,435.0,-9.427,32.559,0.0,105.363,-21.713,-998.54,-0.389,2.14
-273.0,-9.0,27848.0,436.0,-2.837,3.875,0.0,20.394,91.755,-982.48,-1.472,-4.86
-256.0,9.0,27848.0,436.0,13.42,16.49,0.0,-24.228,-61.384,-1006.97,2.547,5.56
-251.0,38.0,27851.0,436.0,-1.914,42.482,0.0,97.007,-122.663,-1019.72,2.709,-0.72
-223.0,6.0,27849.0,436.0,-23.169,23.38,0.0,128.793,48.315,-1001.02,-3.992,2.85
-259.0,-26.0,27850.0,436.0,-3.317,3.695,0.0,-28.824,60.687,-988.0,-3.785,-4.88
-261.0,-18.0,27847.0,436.0,14.695,28.434,0.0,-26.058,-108.858,-997.21,-1.177,1.81
-259.0,-12.0,27849.0,436.0,-12.777,41.247,0.0,151.26,-72.932,-1010.25,-0.19,-3.01
-251.0,-29.0,27849.0,436.0,-22.844,17.84,0.0,93.696,68.699,-999.06,-0.406,-0.03
-285.0,-21.0,27851.0,433.0,18.151,9.976,0.0,-98.201,-6.34,-970.59,2.194,-2.16
-282.0,7.0,27854.0,433.0,24.405,30.076,0.0,23.596,-116.733,-977.73,2.865,1.19
-238.0,-5.0,27855.0,433.0,-12.842,23.481,0.0,198.589,-18.067,-1017.36,-2.393,3.55
-267.0,-29.0,27857.0,433.0,-2.676,0.357,0.0,23.198,52.961,-1009.8,-2.191,-5.17
-284.0,-28.0,27856.0,433.0,37.965,9.217,0.0,-110.927,-47.79,-958.38,-0.555,1.73
-285.0,-14.0,27855.0,433.0,19.246,26.742,0.0,111.905,-87.843,-990.09,0.832,-2.5
-257.0,-20.0,27857.0,433.0,-15.91,19.844,0.0,188.584,3.016,-1027.46,-0.262,0.75
-303.0,-45.0,27852.0,433.0,13.7,6.564,0.0,-64.037,21.52,-984.84,-3.477,-5.58
-308.0,-24.0,27856.0,437.0,41.24,14.731,0.0,-70.433,-59.306,-953.03,3.183,2.64
-293.0,-24.0,27852.0,437.0,2.577,22.054,0.0,186.952,-60.156,-1013.55,-1.127,-1.68
-274.0,-36.0,27852.0,437.0,-12.72,11.427,0.0,110.166,12.808,-1032.53,-1.271,1.57
-313.0,-52.0,27851.0,437.0,29.375,2.837,0.0,-117.219,10.013,-962.24,-2.083,-2.66
-297.0,-40.0,27845.0,437.0,27.534,11.991,0.0,41.582,-58.087,-973.51,1.295,3.14
-286.0,-26.0,27844.0,437.0,-15.391,21.75,0.0,210.842,-65.349,-1048.19,1.498,-3.29
-302.0,-45.0,27841.0,437.0,-3.231,12.015,0.0,4.502,3.357,-1014.89,-2.87,-1.92
-355.0,-62.0,27841.0,437.0,32.148,0.216,0.0,-96.604,16.864,-950.54,-1.897,-6.1
-339.0,-60.0,27840.0,435.0,9.454,8.881,0.0,123.518,-60.783,-1015.3,-0.924,0.44
-316.0,-55.0,27844.0,435.0,-18.88,20.672,0.0,155.592,-68.516,-1060.27,-0.267,0.84
-337.0,-71.0,27844.0,435.0,6.069,8.582,0.0,-48.498,23.088,-983.19,-1.779,-1.15
-335.0,-73.0,27843.0,435.0,20.006,-2.279,0.0,-15.963,24.461,-969.76,1.335,2.33
-318.0,-62.0,27846.0,435.0,-10.448,14.041,0.0,161.26,-83.117,-1043.43,0.26,-0.55
-300.0,-76.0,27844.0,435.0,-20.023,22.252,0.0,90.926,-58.532,-1035.47,-3.898,1.98
-338.0,-111.0,27843.0,435.0,1.799,0.541,0.0,-32.771,59.633,-978.49,-4.266,-5.25
-335.0,-112.0,27843.0,435.0,-0.943,-2.46,0.0,45.735,0.037,-995.53,0.511,0.43
-328.0,-101.0,27840.0,435.0,-19.415,22.6,0.0,111.512,-113.259,-1032.17,-0.814,-0.7
-328.0,-111.0,27844.0,435.0,-15.253,20.124,0.0,27.978,-13.604,-992.41,-1.507,0.31
-347.0,-146.0,27844.0,435.0,-1.965,-3.853,0.0,-11.496,75.695,-968.88,-3.865,-1.95
-331.0,-142.0,27844.0,435.0,-1.343,8.638,0.0,53.494,-67.842,-1004.73,-0.667,2.78
-338.0,-140.0,27842.0,435.0,-9.87,32.516,0.0,90.778,-121.061,-1015.37,-2.684,-3.04
-338.0,-170.0,27845.0,435.0,-9.521,11.91,0.0,58.725,48.512,-987.49,-3.742,-0.57
-374.0,-191.0,27844.0,435.0,2.268,-9.633,0.0,5.932,59.06,-984.56,-1.574,-6.1
-360.0,-170.0,27844.0,435.0,8.934,15.321,0.0,20.958,-120.018,-1003.58,1.01,3.53
-372.0,-153.0,27848.0,438.0,-3.106,28.388,0.0,94.341,-84.399,-1006.16,1.522,-4.12
-358.0,-176.0,27848.0,438.0,-8.65,-0.698,0.0,78.009,81.113,-993.74,-1.387,1.48
-381.0,-178.0,27849.0,438.0,9.294,-6.342,0.0,-15.29,0.374,-992.33,0.459,-2.64
-380.0,-160.0,27849.0,438.0,12.401,19.664,0.0,36.506,-126.244,-994.12,0.243,0.15
-356.0,-180.0,27850.0,438.0,-11.862,11.086,0.0,147.019,1.649,-1005.88,-3.302,1.52
-387.0,-207.0,27852.0,438.0,-9.519,-15.17,0.0,54.625,81.743,-1015.41,-2.06,-6.79
-399.0,-200.0,27851.0,438.0,19.774,-2.129,0.0,-56.922,-65.33,-980.96,0.108,0.85
-412.0,-181.0,27854.0,438.0,13.181,16.359,0.0,75.489,-94.392,-975.68,1.442,-3.7
-378.0,-195.0,27855.0,437.0,-13.478,-2.394,0.0,154.534,43.274,-1017.97,-0.739,2.99
-398.0,-206.0,27857.0,437.0,5.856,-14.745,0.0,-20.398,26.876,-1007.92,-0.511,-1.96
-392.0,-179.0,27859.0,437.0,29.171,3.074,0.0,-46.521,-90.052,-954.05,3.137,4.1
-367.0,-177.0,27860.0,437.0,-2.554,8.277,0.0,159.963,-41.746,-993.09,-0.207,0.97
-353.0,-189.0,27865.0,437.0,-23.005,-8.517,0.0,129.669,45.595,-1031.97,-0.329,0.1
-380.0,-194.0,27863.0,437.0,10.494,-7.231,0.0,-81.038,-19.588,-981.31,-0.807,-1.44
-381.0,-167.0,27868.0,437.0,18.359,8.307,0.0,7.118,-78.482,-967.6,3.405,0.72
-357.0,-176.0,27868.0,437.0,-20.612,6.687,0.0,188.235,-14.582,-1026.69,-1.559,0.1
-353.0,-190.0,27870.0,438.0,-17.859,-3.588,0.0,36.809,21.711,-1027.25,-1.33,0.88
-379.0,-192.0,27870.0,438.0,17.974,0.121,0.0,-100.092,-30.094,-964.91,-0.647,-0.6
-331.0,-186.0,27869.0,438.0,2.847,8.943,0.0,101.796,-53.276,-995.01,0.084,7.62
-319.0,-186.0,27871.0,438.0,-27.801,8.438,0.0,173.043,-19.703,-1057.46,0.229,-1.75
-323.0,-197.0,27870.0,438.0,-2.801,3.871,0.0,-39.561,-2.802,-1006.27,-1.562,1.8
-343.0,-201.0,27871.0,438.0,17.167,5.821,0.0,-34.762,-25.663,-965.12,-1.079,-1.53
-316.0,-203.0,27873.0,438.0,-12.433,13.781,0.0,158.206,-51.316,-1025.64,-1.305,1.5
-289.0,-213.0,27874.0,438.0,-19.936,16.48,0.0,82.428,-33.985,-1033.85,-2.525,4.16
-318.0,-218.0,27876.0,438.0,13.08,10.39,0.0,-79.699,0.654,-973.81,-0.274,-1.74
-291.0,-211.0,27876.0,438.0,15.024,8.541,0.0,42.546,-22.482,-985.69,1.456,5.32
-285.0,-201.0,27879.0,438.0,-11.591,16.655,0.0,158.665,-62.345,-1029.08,0.699,-2.57
-274.0,-213.0,27880.0,438.0,-2.308,13.976,0.0,24.929,-22.49,-1005.98,-2.459,2.69
-297.0,-238.0,27880.0,438.0,15.687,1.78,0.0,-27.191,21.759,-980.23,-3.593,-2.26
-281.0,-237.0,27880.0,438.0,0.198,7.168,0.0,100.856,-43.847,-1003.41,-0.627,1.26
-272.0,-243.0,27879.0,438.0,-12.25,20.209,0.0,96.137,-78.074,-1014.58,-3.043,0.09
-296.0,-254.0,27884.0,438.0,2.959,9.011,0.0,-10.82,14.338,-988.45,-0.96,-3.16
-293.0,-274.0,27883.0,439.0,7.792,-4.315,0.0,29.995,26.675,-993.01,-2.546,1.09
-275.0,-258.0,27888.0,439.0,-5.409,10.933,0.0,101.402,-83.295,-1009.79,1.123,1.57
-277.0,-262.0,27888.0,439.0,-5.239,19.702,0.0,53.286,-64.81,-993.0,-2.129,-0.64
-284.0,-289.0,27891.0,439.0,2.955,-2.064,0.0,27.066,51.06,-991.4,-3.075,-0.93
-301.0,-298.0,27890.0,439.0,2.062,-8.04,0.0,60.325,-2.231,-1003.59,-1.214,-3.95
-282.0,-281.0,27889.0,439.0,1.623,12.069,0.0,58.832,-105.861,-986.06,0.523,3.34
-298.0,-282.0,27890.0,439.0,1.989,10.444,0.0,48.131,-25.096,-986.17,-0.282,-3.49
-280.0,-292.0,27891.0,439.0,0.986,-10.589,0.0,53.472,55.192,-1008.31,0.412,3.27
-292.0,-279.0,27891.0,441.0,5.411,-3.784,0.0,31.812,-47.71,-990.51,1.573,-1.96
-289.0,-266.0,27891.0,441.0,7.805,15.42,0.0,37.296,-97.297,-964.87,0.186,0.77
-272.0,-283.0,27894.0,441.0,-2.06,2.444,0.0,86.287,24.319,-1007.29,-1.925,1.95
-292.0,-295.0,27892.0,441.0,-3.858,-12.175,0.0,58.333,37.835,-1027.18,-0.639,-4.48
-288.0,-275.0,27890.0,441.0,8.741,6.306,0.0,0.16,-89.889,-970.3,1.758,2.18
-312.0,-268.0,27892.0,441.0,7.089,17.2,0.0,50.48,-65.476,-968.37,-0.036,-5.21
-284.0,-280.0,27891.0,441.0,-5.334,-0.451,0.0,95.313,45.649,-1023.8,-0.249,3.89
-302.0,-281.0,27890.0,441.0,3.933,-1.348,0.0,12.791,-13.661,-1009.79,-0.093,-2.45
-291.0,-261.0,27889.0,443.0,18.198,19.645,0.0,-0.447,-100.803,-949.44,1.45,3.51
-281.0,-270.0,27887.0,443.0,3.263,16.67,0.0,112.072,-13.726,-982.35,-1.589,-0.32
-296.0,-275.0,27889.0,443.0,-3.317,0.734,0.0,85.529,40.909,-1026.6,0.911,-4.41
-309.0,-271.0,27887.0,443.0,15.975,9.744,0.0,-34.305,-58.285,-972.74,-0.308,-0.04
-328.0,-253.0,27891.0,443.0,17.328,22.441,0.0,29.514,-78.037,-946.42,1.617,-3.35
-306.0,-270.0,27890.0,443.0,-6.58,10.173,0.0,132.202,17.399,-1009.17,-2.184,1.46
-313.0,-283.0,27894.0,443.0,-2.868,1.738,0.0,31.084,8.087,-1019.73,-1.571,-0.99
-330.0,-279.0,27890.0,443.0,23.422,13.924,0.0,-41.105,-69.359,-947.22,-0.896,-0.62
-299.0,-287.0,27890.0,439.0,11.544,15.825,0.0,101.972,-33.649,-958.76,-1.871,4.13
-303.0,-306.0,27889.0,439.0,-6.352,4.483,0.0,132.8,19.461,-1034.69,-2.615,-3.75
-313.0,-311.0,27886.0,439.0,12.75,4.402,0.0,-28.263,-25.91,-989.39,-1.15,0.29
-348.0,-305.0,27887.0,439.0,28.382,12.923,0.0,-15.425,-60.886,-936.71,-0.271,-5.03
-324.0,-310.0,27890.0,439.0,9.474,10.06,0.0,124.179,-15.391,-997.68,-0.751,2.05
-330.0,-315.0,27892.0,439.0,6.778,2.284,0.0,61.853,-6.514,-1026.35,-0.7,-1.83
-341.0,-311.0,27891.0,439.0,31.292,4.655,0.0,-48.308,-43.968,-961.06,0.094,0.89
-324.0,-310.0,27892.0,439.0,25.809,4.35,0.0,62.194,-34.301,-959.84,-0.236,2.69
-330.0,-315.0,27894.0,440.0,4.195,-1.088,0.0,131.142,-13.262,-1024.59,-0.973,-4.05
-317.0,-326.0,27895.0,440.0,16.163,1.694,0.0,0.187,-21.932,-1001.65,-2.137,3.85
-342.0,-335.0,27896.0,440.0,31.33,5.338,0.0,-18.872,-26.837,-962.58,-2.174,-3.01
-305.0,-337.0,27895.0,440.0,13.083,7.799,0.0,110.237,-23.858,-993.82,-0.424,5.28
-296.0,-342.0,27897.0,440.0,3.156,10.6,0.0,85.288,-26.526,-1009.35,-1.274,0.32
-300.0,-338.0,27898.0,440.0,21.07,8.997,0.0,-25.881,-16.742,-984.96,0.823,1.51
-282.0,-349.0,27895.0,440.0,19.82,4.458,0.0,43.547,-3.9,-993.5,-1.822,3.41
-260.0,-341.0,27900.0,440.0,1.952,4.888,0.0,120.718,-24.706,-1010.85,1.578,2.03
-244.0,-350.0,27898.0,441.0,8.437,8.216,0.0,29.871,-36.834,-996.09,-2.481,3.66
-251.0,-346.0,27900.0,441.0,21.402,3.467,0.0,0.141,-5.463,-995.46,1.172,-0.14
-230.0,-343.0,27900.0,441.0,10.875,0.666,0.0,89.822,-10.931,-1011.64,0.9,2.76
-211.0,-329.0,27901.0,441.0,2.831,5.506,0.0,71.765,-46.51,-993.08,1.871,2.82
-222.0,-322.0,27903.0,441.0,12.313,3.773,0.0,4.01,-22.118,-987.41,1.349,-0.87
-199.0,-323.0,27905.0,441.0,8.332,-6.313,0.0,54.27,12.967,-1008.96,0.779,4.38
-201.0,-315.0,27907.0,441.0,-0.95,-1.402,0.0,89.11,-33.775,-999.11,1.07,-1.96
-178.0,-308.0,27907.0,441.0,5.786,7.877,0.0,28.044,-54.152,-970.02,0.24,5.16
-180.0,-309.0,27911.0,440.0,11.408,1.914,0.0,29.301,3.411,-1001.08,0.624,0.14
-158.0,-313.0,27907.0,440.0,1.269,-3.468,0.0,89.9,0.89,-1018.6,-0.128,2.89
-147.0,-290.0,27907.0,440.0,-0.049,7.486,0.0,58.809,-63.035,-971.28,3.143,1.8
-157.0,-290.0,27907.0,440.0,9.337,12.212,0.0,15.69,-43.277,-961.04,-0.845,-1.04
-129.0,-293.0,27907.0,440.0,4.217,0.153,0.0,70.336,22.951,-1016.33,0.798,4.7
-132.0,-288.0,27907.0,440.0,-4.027,-0.087,0.0,82.823,-19.626,-1015.6,1.081,-1.69
-119.0,-266.0,27907.0,440.0,5.643,13.047,0.0,13.482,-74.132,-952.72,2.466,3.72
-140.0,-259.0,27910.0,440.0,8.97,9.505,0.0,34.746,-12.726,-982.23,1.768,-3.98
-129.0,-254.0,27912.0,440.0,-1.258,-2.522,0.0,93.587,18.583,-1030.83,2.271,0.61
-145.0,-244.0,27910.0,440.0,3.003,4.325,0.0,39.447,-52.351,-978.6,0.911,-2.99
-148.0,-236.0,27914.0,440.0,14.334,10.802,0.0,8.351,-54.398,-936.58,0.479,0.6
-139.0,-251.0,27913.0,440.0,5.278,1.119,0.0,85.172,16.098,-1013.76,-1.932,0.53
-146.0,-261.0,27914.0,440.0,-2.299,-1.717,0.0,83.728,-6.886,-1037.88,-1.44,-2.63
-153.0,-261.0,27910.0,440.0,10.313,10.555,0.0,4.826,-67.19,-953.47,-1.663,-0.05
-165.0,-269.0,27911.0,440.0,13.099,10.634,0.0,38.829,-23.701,-964.13,-1.6,-2.2
-163.0,-277.0,27907.0,440.0,-1.02,-1.721,0.0,107.861,14.726,-1048.5,-0.468,-1.5
-154.0,-266.0,27903.0,443.0,2.321,1.368,0.0,43.394,-42.024,-1008.0,1.316,1.88
-178.0,-254.0,27901.0,443.0,18.338,7.096,0.0,-10.122,-54.387,-936.07,1.446,-3.04
-157.0,-259.0,27898.0,443.0,12.801,-2.394,0.0,69.607,9.482,-990.69,-0.14,3.46
-152.0,-258.0,27899.0,443.0,3.502,-7.89,0.0,87.834,-1.937,-1046.51,0.726,-0.42
-147.0,-253.0,27892.0,443.0,14.195,0.616,0.0,10.562,-56.328,-979.25,-0.065,2.14
-140.0,-255.0,27892.0,443.0,17.621,-0.04,0.0,30.044,-18.264,-953.16,-0.407,1.99
-139.0,-268.0,27890.0,443.0,6.109,-9.04,0.0,89.549,16.181,-1028.3,-1.49,-1.37
-127.0,-265.0,27890.0,443.0,9.106,-3.673,0.0,35.814,-37.894,-1021.49,-0.046,2.84
-138.0,-269.0,27889.0,440.0,19.755,3.2,0.0,2.967,-46.804,-959.71,-1.634,-0.8
-103.0,-280.0,27891.0,440.0,13.482,-6.757,0.0,72.364,12.449,-979.47,-1.205,6.19
-102.0,-296.0,27892.0,440.0,7.003,-10.527,0.0,76.405,-7.767,-1028.49,-2.803,-0.81
-78.0,-295.0,27892.0,440.0,16.381,-0.466,0.0,14.592,-62.405,-997.24,-1.09,5.75
-76.0,-305.0,27891.0,440.0,15.969,0.114,0.0,41.429,-26.158,-976.11,-2.285,0.67
-57.0,-314.0,27893.0,440.0,5.414,-8.002,0.0,83.087,9.107,-1011.62,-0.9,2.59
-49.0,-315.0,27890.0,440.0,8.291,-2.085,0.0,33.302,-44.125,-1025.64,-1.056,2.13
-62.0,-309.0,27887.0,440.0,14.362,6.433,0.0,23.769,-61.709,-987.38,-0.122,-2.01
-56.0,-315.0,27885.0,441.0,7.536,-0.577,0.0,73.526,-2.625,-982.72,-0.643,0.47
-64.0,-320.0,27885.0,441.0,9.702,-5.267,0.0,40.151,-8.509,-1005.6,-0.693,-1.36
-70.0,-313.0,27884.0,441.0,20.164,2.75,0.0,5.087,-58.088,-1005.39,0.135,0.22
-54.0,-320.0,27881.0,441.0,14.966,2.473,0.0,71.82,-25.378,-1001.55,-1.681,2.33
-62.0,-328.0,27882.0,441.0,10.316,-6.642,0.0,72.263,10.945,-993.55,-0.74,-2.36
-60.0,-330.0,27879.0,441.0,25.814,-3.966,0.0,-7.941,-32.548,-987.21,-0.777,2.06
-73.0,-321.0,27880.0,441.0,28.713,2.169,0.0,30.88,-50.448,-1010.12,0.763,-2.04
-47.0,-323.0,27878.0,441.0,11.266,-3.719,0.0,112.656,-4.457,-1023.72,0.126,3.04
-58.0,-324.0,27881.0,443.0,15.024,-10.143,0.0,34.584,0.855,-981.68,0.324,-1.77
-73.0,-325.0,27881.0,443.0,35.004,-4.913,0.0,-36.206,-40.529,-974.65,-0.86,-0.3
-46.0,-323.0,27883.0,443.0,26.377,-2.661,0.0,70.829,-31.115,-1027.96,0.051,4.55
-49.0,-331.0,27883.0,443.0,10.336,-7.545,0.0,105.536,-3.083,-1019.71,-1.265,-2.46
-21.0,-332.0,27882.0,443.0,25.926,-7.264,0.0,-16.181,-21.581,-954.49,-0.159,7.71
-45.0,-327.0,27882.0,443.0,36.7,-3.795,0.0,0.12,-35.37,-984.22,0.365,-3.15
-3.0,-325.0,27880.0,443.0,16.157,-4.869,0.0,122.817,-18.599,-1022.07,0.489,5.81
-6.0,-337.0,27878.0,443.0,14.221,-6.41,0.0,56.924,-16.111,-966.75,-2.368,-0.79
-8.0,-348.0,27879.0,440.0,37.187,-6.399,0.0,-43.739,-22.232,-930.58,-2.331,2.6
9.0,-364.0,27876.0,440.0,31.147,-7.537,0.0,63.495,-17.651,-1006.06,-3.23,3.01
20.0,-369.0,27874.0,440.0,11.007,-6.641,0.0,124.244,-25.418,-1023.73,-1.172,-0.24
27.0,-367.0,27872.0,440.0,24.026,-6.771,0.0,-8.732,-32.396,-929.86,-0.155,3.16
3.0,-364.0,27874.0,440.0,40.954,-11.215,0.0,-31.236,-14.718,-949.47,0.747,-2.24
33.0,-356.0,27876.0,440.0,22.813,-15.255,0.0,103.762,-14.159,-1041.24,1.614,4.18
53.0,-354.0,27877.0,440.0,8.729,-12.937,0.0,96.124,-38.074,-1006.94,-0.169,2.57
34.0,-351.0,27882.0,440.0,27.222,-11.201,0.0,-19.441,-20.713,-938.39,0.45,-1.63
55.0,-363.0,27884.0,440.0,32.497,-16.247,0.0,25.364,6.109,-995.85,-1.567,4.93
65.0,-356.0,27885.0,440.0,16.134,-12.127,0.0,111.342,-28.768,-1052.6,1.02,-0.16
78.0,-351.0,27884.0,440.0,15.025,-5.04,0.0,46.982,-46.58,-979.9,0.163,2.69
79.0,-354.0,27885.0,440.0,26.475,-10.444,0.0,-3.946,0.902,-957.72,-0.004,1.94
83.0,-346.0,27884.0,440.0,18.589,-14.225,0.0,69.461,-2.946,-1045.02,2.057,0.24
109.0,-326.0,27884.0,440.0,5.191,-5.025,0.0,92.635,-57.383,-1033.05,2.621,3.8
96.0,-320.0,27887.0,440.0,11.198,-3.403,0.0,19.908,-31.076,-958.55,0.835,-1.77
116.0,-321.0,27889.0,440.0,16.89,-15.884,0.0,18.06,25.822,-983.75,1.217,5.09
102.0,-318.0,27892.0,441.0,8.226,-15.807,0.0,74.023,-19.114,-1050.24,0.589,-3.55
132.0,-306.0,27893.0,441.0,4.128,-3.581,0.0,65.262,-62.713,-1009.04,1.008,5.41
113.0,-313.0,27894.0,441.0,9.213,-8.402,0.0,29.812,0.756,-964.94,-0.824,-3.01
116.0,-305.0,27896.0,441.0,10.851,-17.522,0.0,41.351,20.935,-1013.82,2.911,0.88
122.0,-279.0,27896.0,441.0,5.296,-6.996,0.0,61.444,-62.815,-1039.18,3.62,0.82
114.0,-258.0,27897.0,441.0,0.481,1.302,0.0,61.22,-59.115,-989.76,2.944,-1.98
117.0,-264.0,27897.0,441.0,-0.877,-14.397,0.0,49.438,34.805,-974.4,0.564,0.48
103.0,-260.0,27902.0,441.0,6.471,-18.567,0.0,34.805,4.489,-1017.97,1.567,-2.16
120.0,-242.0,27902.0,443.0,9.431,-1.327,0.0,49.104,-80.912,-1012.97,1.666,3.32
120.0,-239.0,27903.0,443.0,4.644,-1.793,0.0,79.46,-17.372,-985.99,0.698,-0.84
107.0,-246.0,27907.0,443.0,8.498,-18.166,0.0,46.587,48.041,-992.3,0.64,-2.58
97.0,-235.0,27906.0,443.0,18.714,-11.82,0.0,3.985,-43.285,-1008.99,1.434,-0.46
86.0,-206.0,27908.0,443.0,11.679,3.76,0.0,69.56,-84.329,-1002.82,3.708,-2.83
100.0,-208.0,27908.0,443.0,-3.559,-7.672,0.0,106.631,18.12,-991.46,0.932,0.78
80.0,-207.0,27913.0,443.0,11.056,-20.227,0.0,2.299,24.633,-986.17,1.679,-2.34
58.0,-197.0,27913.0,443.0,28.981,-6.117,0.0,-18.474,-77.981,-996.03,0.003,-2.17
82.0,-190.0,27913.0,441.0,13.676,1.115,0.0,108.592,-57.222,-1007.07,0.328,2.76
61.0,-205.0,27915.0,441.0,2.546,-14.493,0.0,97.858,31.247,-993.89,-1.441,-5.67
57.0,-202.0,27914.0,441.0,25.439,-17.068,0.0,-35.922,-13.918,-970.3,0.768,1.97
24.0,-187.0,27916.0,441.0,32.459,-2.145,0.0,17.775,-84.234,-991.18,0.939,-5.6
58.0,-186.0,27917.0,441.0,7.679,-5.33,0.0,144.383,-17.934,-1017.58,0.424,3.64
27.0,-197.0,27920.0,441.0,11.193,-20.305,0.0,34.542,28.614,-985.13,-0.69,-5.67
24.0,-185.0,27924.0,441.0,39.283,-15.766,0.0,-67.941,-43.426,-963.96,1.683,3.09
27.0,-174.0,27924.0,441.0,25.464,-6.095,0.0,89.622,-66.856,-1017.08,0.716,-0.75
36.0,-174.0,27928.0,440.0,0.44,-13.091,0.0,148.695,2.132,-1022.17,0.675,-1.34
21.0,-189.0,27925.0,440.0,23.77,-20.418,0.0,-36.761,7.156,-944.5,-2.127,-0.34
-16.0,-177.0,27926.0,440.0,44.948,-12.702,0.0,-39.51,-50.579,-967.58,1.453,-4.66
24.0,-171.0,27926.0,440.0,12.535,-6.995,0.0,152.363,-46.775,-1038.52,0.283,4.75
11.0,-186.0,27927.0,440.0,-4.298,-12.78,0.0,104.784,-2.743,-1001.89,-2.304,-4.52
0.0,-188.0,27930.0,440.0,24.489,-16.899,0.0,-73.713,-6.5,-940.64,-0.068,1.83
-9.0,-192.0,27931.0,440.0,26.612,-11.829,0.0,21.056,-42.025,-995.4,-1.416,-1.07
20.0,-177.0,27932.0,440.0,-3.228,-6.732,0.0,167.136,-44.066,-1046.23,2.262,1.95
20.0,-179.0,27931.0,445.0,1.146,-9.694,0.0,29.836,-11.684,-969.12,-0.073,0.58
-2.0,-173.0,27932.0,445.0,29.356,-14.694,0.0,-67.592,-3.044,-943.48,1.739,-0.7
16.0,-173.0,27931.0,445.0,22.421,-9.163,0.0,97.671,-38.781,-1032.15,-0.694,2.07
35.0,-183.0,27931.0,445.0,4.009,-2.915,0.0,148.255,-44.643,-1023.29,-2.768,0.68
12.0,-216.0,27930.0,445.0,29.123,-9.605,0.0,-20.566,5.031,-931.13,-5.728,-2.36
17.0,-236.0,27931.0,445.0,51.459,-17.053,0.0,-21.68,11.594,-964.98,-2.989,3.22
34.0,-234.0,27930.0,445.0,22.81,-13.37,0.0,135.931,-51.49,-1047.91,-0.516,0.55
65.0,-220.0,27930.0,445.0,6.524,-11.079,0.0,99.439,-47.723,-989.42,1.808,4.61
33.0,-226.0,27929.0,443.0,25.484,-24.92,0.0,-36.706,17.106,-931.5,-0.01,-3.66
44.0,-211.0,27931.0,443.0,31.179,-29.626,0.0,21.943,-11.359,-1004.5,3.356,2.95
60.0,-192.0,27931.0,443.0,9.751,-16.544,0.0,130.15,-81.765,-1034.47,1.819,0.57
62.0,-193.0,27930.0,443.0,9.715,-17.495,0.0,53.283,-31.172,-955.15,-0.507,0.34
69.0,-205.0,27934.0,443.0,31.018,-31.45,0.0,-28.642,38.081,-946.99,-0.532,3.82
67.0,-196.0,27932.0,443.0,29.482,-25.466,0.0,54.276,-36.23,-1024.77,1.157,-0.4
114.0,-173.0,27931.0,443.0,14.712,-6.682,0.0,109.101,-91.691,-1015.36,2.442,7.46
101.0,-185.0,27933.0,443.0,19.482,-16.673,0.0,28.774,9.409,-966.09,-1.559,-2.04
107.0,-186.0,27930.0,441.0,32.923,-33.826,0.0,-9.19,43.999,-989.27,1.889,3.1
102.0,-176.0,27930.0,441.0,26.513,-19.74,0.0,65.381,-74.959,-1028.31,0.27,-1.36
129.0,-158.0,27930.0,441.0,13.718,-6.777,0.0,90.79,-74.854,-996.72,1.864,3.94
128.0,-187.0,27927.0,441.0,19.674,-26.338,0.0,20.382,51.48,-970.82,-3.334,0.79
136.0,-186.0,27931.0,441.0,30.046,-34.594,0.0,-0.79,15.446,-1003.44,1.303,3.29
167.0,-164.0,27927.0,441.0,20.504,-11.611,0.0,75.459,-108.089,-1011.25,1.57,5.42
170.0,-154.0,27929.0,441.0,5.801,-10.196,0.0,102.491,-35.04,-990.5,1.516,-1.14
165.0,-169.0,27928.0,441.0,12.331,-32.893,0.0,22.893,62.93,-987.49,-0.182,0.0
153.0,-152.0,27929.0,445.0,26.041,-28.242,0.0,-9.783,-37.121,-994.64,2.912,-0.54
169.0,-124.0,27930.0,445.0,14.178,-3.662,0.0,80.222,-110.134,-998.95,2.657,2.25
208.0,-137.0,27930.0,445.0,-3.909,-12.497,0.0,111.482,13.82,-996.55,-1.425,5.75
197.0,-148.0,27933.0,445.0,7.372,-32.042,0.0,0.257,62.357,-981.89,0.54,-0.44
215.0,-129.0,27930.0,445.0,19.655,-14.981,0.0,-9.296,-77.024,-985.66,1.863,5.49
234.0,-108.0,27929.0,445.0,-3.136,3.259,0.0,128.096,-90.737,-1021.95,1.973,1.41
245.0,-123.0,27930.0,445.0,-18.631,-15.64,0.0,109.575,51.786,-1021.66,-0.487,0.37
234.0,-126.0,27929.0,445.0,5.069,-26.739,0.0,-43.155,29.819,-981.04,1.101,0.78
231.0,-112.0,27930.0,443.0,13.545,-3.73,0.0,11.789,-104.219,-993.29,-0.001,0.8
278.0,-112.0,27931.0,443.0,-15.596,1.28,0.0,161.423,-42.579,-1039.43,-0.56,5.79
267.0,-146.0,27930.0,443.0,-15.904,-21.93,0.0,58.023,70.284,-1015.26,-3.875,-2.39
270.0,-142.0,27931.0,443.0,17.114,-23.899,0.0,-74.774,-17.863,-970.94,0.923,4.8
266.0,-124.0,27929.0,443.0,9.765,-3.841,0.0,74.046,-107.058,-1018.51,0.755,-1.43
303.0,-121.0,27932.0,443.0,-21.186,-11.041,0.0,174.25,-5.988,-1049.94,1.205,3.45
277.0,-141.0,27931.0,443.0,-2.46,-32.02,0.0,-13.512,54.138,-986.34,-1.626,-2.95
256.0,-121.0,27935.0,443.0,31.869,-25.58,0.0,-77.52,-48.179,-961.57,3.207,-0.14
285.0,-102.0,27935.0,444.0,9.762,-11.315,0.0,136.318,-83.615,-1035.73,1.667,3.09
284.0,-110.0,27941.0,444.0,-10.818,-23.358,0.0,141.226,16.584,-1033.81,-0.351,-2.94
255.0,-116.0,27941.0,444.0,25.012,-35.144,0.0,-83.028,25.124,-943.62,0.315,-1.43
242.0,-101.0,27943.0,444.0,42.508,-23.424,0.0,-25.872,-64.922,-975.59,1.693,-0.17
265.0,-83.0,27943.0,444.0,6.818,-15.753,0.0,183.072,-54.456,-1059.33,2.464,0.37
275.0,-104.0,27943.0,444.0,2.232,-28.801,0.0,69.911,27.062,-998.25,-2.489,1.43
235.0,-117.0,27944.0,444.0,40.148,-36.474,0.0,-101.681,11.892,-937.55,-1.646,-2.9
257.0,-120.0,27941.0,444.0,33.431,-24.059,0.0,61.95,-66.377,-1015.67,-1.993,4.05
271.0,-123.0,27942.0,443.0,-0.767,-18.14,0.0,177.813,-46.322,-1040.11,-1.474,-1.31
269.0,-143.0,27939.0,443.0,14.599,-30.448,0.0,-14.425,23.161,-947.46,-2.518,1.86
244.0,-137.0,27939.0,443.0,45.173,-35.122,0.0,-84.384,-1.592,-947.07,1.992,-0.61
268.0,-114.0,27938.0,443.0,23.331,-20.537,0.0,114.775,-77.986,-1027.28,2.59,2.8
304.0,-105.0,27939.0,443.0,-4.864,-15.381,0.0,145.745,-52.452,-1009.98,0.894,4.19
269.0,-119.0,27938.0,443.0,15.849,-30.287,0.0,-40.303,26.941,-946.05,-1.299,-4.06
284.0,-111.0,27940.0,443.0,29.548,-35.638,0.0,-22.15,-4.374,-975.96,2.185,5.59
291.0,-93.0,27939.0,443.0,0.762,-15.141,0.0,145.399,-87.816,-1036.09,1.536,-1.61
323.0,-89.0,27940.0,443.0,-9.981,-10.819,0.0,85.78,-32.244,-989.25,0.541,5.28
295.0,-107.0,27938.0,443.0,14.191,-27.368,0.0,-51.747,50.982,-960.74,-1.32,-2.22
313.0,-91.0,27939.0,443.0,14.765,-21.139,0.0,32.62,-33.517,-1012.05,2.85,4.16
327.0,-67.0,27934.0,443.0,-12.724,1.747,0.0,143.648,-107.605,-1027.54,2.025,-0.03
319.0,-73.0,27935.0,443.0,-13.825,-5.226,0.0,49.365,2.683,-980.06,-0.381,-1.5
300.0,-91.0,27934.0,443.0,5.386,-24.504,0.0,-33.267,56.714,-985.55,-1.024,-1.01
300.0,-75.0,27934.0,443.0,1.28,-9.876,0.0,63.422,-74.562,-1024.79,1.475,-0.29
323.0,-55.0,27935.0,443.0,-17.867,8.152,0.0,127.044,-96.098,-1003.7,1.763,2.28
311.0,-77.0,27935.0,443.0,-13.099,-10.909,0.0,38.789,46.257,-985.06,-2.225,-1.97
283.0,-64.0,27938.0,443.0,5.772,-26.873,0.0,-16.236,35.518,-997.28,4.523,-3.26
290.0,-32.0,27937.0,443.0,0.721,-3.841,0.0,72.302,-115.763,-1003.88,3.232,0.66
280.0,-12.0,27942.0,443.0,-15.481,5.417,0.0,120.621,-71.418,-996.82,2.565,-4.13
270.0,-28.0,27941.0,443.0,-7.056,-22.59,0.0,34.432,74.868,-994.78,-0.018,-1.39
241.0,-16.0,27944.0,443.0,13.61,-27.493,0.0,-19.746,-5.032,-989.28,2.996,-3.58
255.0,16.0,27943.0,443.0,8.703,-0.988,0.0,74.662,-131.038,-990.34,3.092,2.07
274.0,4.0,27945.0,443.0,-8.832,-8.249,0.0,128.836,-6.752,-1004.89,-1.901,1.49
240.0,-31.0,27943.0,443.0,3.095,-38.921,0.0,19.358,90.359,-1006.85,-3.322,-5.81
245.0,-30.0,27941.0,443.0,23.178,-29.367,0.0,-19.985,-58.307,-978.74,-1.051,3.33
214.0,-25.0,27940.0,443.0,9.791,-8.21,0.0,107.258,-110.886,-991.14,-1.728,-8.01
250.0,-52.0,27941.0,443.0,-8.526,-31.492,0.0,116.436,52.899,-1013.43,-2.946,5.17
206.0,-70.0,27942.0,443.0,12.103,-53.082,0.0,-33.731,58.105,-979.49,-0.943,-5.9
226.0,-40.0,27940.0,443.0,26.349,-30.613,0.0,-18.047,-110.95,-956.11,3.05,6.23
235.0,-24.0,27940.0,443.0,-0.597,-18.523,0.0,143.476,-80.251,-1000.29,1.45,-1.26
230.0,-31.0,27941.0,443.0,-10.109,-43.422,0.0,92.67,71.264,-999.76,1.665,-2.19
194.0,-22.0,27940.0,443.0,22.205,-48.998,0.0,-73.713,5.239,-941.83,2.694,-3.27
176.0,17.0,27942.0,443.0,25.955,-22.896,0.0,27.134,-121.482,-959.97,4.726,-2.69
210.0,20.0,27944.0,443.0,-12.528,-21.495,0.0,174.527,-18.281,-1021.6,0.836,2.68
172.0,-3.0,27947.0,443.0,-9.576,-44.065,0.0,24.122,79.179,-997.78,-1.367,-6.66
161.0,7.0,27950.0,443.0,21.319,-35.653,0.0,-91.893,-35.762,-941.04,1.832,2.41
168.0,18.0,27951.0,443.0,4.991,-14.22,0.0,107.743,-95.082,-998.31,-0.12,-0.32
191.0,11.0,27954.0,443.0,-26.531,-23.654,0.0,178.092,20.139,-1044.72,0.067,0.48
167.0,-5.0,27949.0,443.0,-1.212,-36.401,0.0,-38.797,38.658,-982.12,-1.44,-1.98
140.0,21.0,27950.0,444.0,19.9,-21.451,0.0,-48.986,-70.947,-959.44,3.829,-2.09
157.0,35.0,27947.0,444.0,-15.585,-10.105,0.0,172.136,-63.967,-1038.74,1.547,-0.58
169.0,25.0,27951.0,444.0,-35.52,-22.952,0.0,126.134,29.175,-1032.06,-0.242,0.06
126.0,18.0,27950.0,444.0,-1.358,-28.546,0.0,-85.308,6.203,-954.71,-0.38,-4.32
145.0,34.0,27951.0,444.0,8.202,-13.433,0.0,12.793,-75.522,-982.38,1.512,5.02
139.0,39.0,27954.0,444.0,-26.455,-6.861,0.0,189.189,-48.438,-1051.46,0.121,-5.57
152.0,33.0,27954.0,444.0,-21.07,-18.74,0.0,42.541,23.67,-1003.24,0.402,2.72
94.0,42.0,27954.0,444.0,15.455,-24.389,0.0,-86.001,-4.963,-954.97,2.496,-7.16
121.0,70.0,27954.0,446.0,3.344,-13.505,0.0,94.816,-69.648,-1020.18,4.073,4.01
120.0,74.0,27955.0,446.0,-23.606,-12.611,0.0,161.72,-34.462,-1051.68,0.602,-3.85
87.0,62.0,27955.0,446.0,-1.011,-27.663,0.0,-27.542,30.292,-980.72,-0.59,-4.02
73.0,56.0,27954.0,446.0,22.04,-32.004,0.0,-39.668,-1.013,-966.59,-0.586,0.12
77.0,63.0,27955.0,446.0,-1.85,-20.837,0.0,141.07,-62.205,-1036.95,0.216,-2.27
108.0,59.0,27955.0,446.0,-13.11,-20.685,0.0,101.207,-22.967,-1010.84,-0.721,4.55
53.0,40.0,27956.0,446.0,14.507,-36.68,0.0,-46.654,33.669,-967.91,-1.906,-7.82
70.0,50.0,27956.0,446.0,21.253,-37.337,0.0,24.926,-20.731,-996.54,2.039,4.11
49.0,57.0,27958.0,444.0,-0.856,-25.367,0.0,139.904,-72.115,-1016.11,-0.059,-6.97
64.0,54.0,27961.0,444.0,-2.207,-30.015,0.0,51.229,-5.544,-983.6,0.075,2.91
36.0,41.0,27960.0,444.0,16.848,-43.816,0.0,-31.579,34.354,-976.91,-0.65,-3.12
49.0,76.0,27962.0,444.0,9.15,-34.513,0.0,68.339,-52.876,-1000.56,6.016,2.12
56.0,102.0,27961.0,444.0,-7.007,-20.59,0.0,115.038,-81.306,-992.75,3.424,-0.81
31.0,114.0,27965.0,444.0,1.906,-33.704,0.0,20.562,22.129,-977.71,3.864,-4.09
10.0,119.0,27966.0,444.0,14.739,-47.122,0.0,0.121,30.275,-991.03,2.817,-2.67
14.0,142.0,27968.0,444.0,5.279,-32.348,0.0,84.999,-78.09,-999.05,2.967,-0.25
17.0,142.0,27970.0,448.0,-6.28,-20.263,0.0,86.234,-49.497,-984.21,-0.718,-0.61
6.0,112.0,27970.0,448.0,-0.12,-38.672,0.0,19.449,69.08,-989.22,-2.937,-1.3
-6.0,108.0,27971.0,448.0,5.37,-40.12,0.0,19.114,9.399,-991.52,0.176,-1.57
9.0,131.0,27968.0,448.0,-4.579,-14.179,0.0,79.509,-101.834,-981.57,2.227,2.2
14.0,140.0,27970.0,448.0,-14.777,-15.491,0.0,90.178,-16.407,-993.37,1.979,-0.48
0.0,130.0,27968.0,448.0,-10.938,-37.29,0.0,33.753,67.209,-1001.46,1.216,-2.2
-3.0,156.0,27967.0,448.0,-1.962,-31.845,0.0,12.54,-41.636,-966.16,4.689,0.28
-11.0,181.0,27968.0,448.0,-7.046,-16.741,0.0,69.889,-100.529,-957.28,2.417,-2.39
21.0,182.0,27970.0,446.0,-16.93,-33.092,0.0,91.978,20.288,-995.26,1.752,5.34
-2.0,174.0,27969.0,446.0,-9.336,-53.212,0.0,25.478,44.2,-1002.13,0.87,-4.04
19.0,207.0,27967.0,446.0,0.744,-32.481,0.0,15.162,-90.041,-957.2,4.549,5.37
-5.0,222.0,27969.0,446.0,-10.098,-17.301,0.0,95.963,-78.12,-976.87,1.228,-6.43
5.0,215.0,27971.0,446.0,-17.186,-36.448,0.0,86.004,54.553,-1018.54,1.237,0.99
-17.0,209.0,27972.0,446.0,-1.055,-43.81,0.0,-10.365,10.016,-987.16,0.118,-2.83
-6.0,234.0,27974.0,446.0,3.442,-22.776,0.0,29.145,-102.372,-961.11,2.557,2.86
10.0,222.0,27975.0,446.0,-16.8,-23.093,0.0,128.197,-26.001,-1007.23,-2.437,0.9
-5.0,205.0,27977.0,446.0,-17.776,-44.324,0.0,59.501,59.794,-1027.69,-0.382,-3.57
-16.0,210.0,27975.0,446.0,2.114,-43.093,0.0,-26.426,-36.479,-969.55,0.664,0.15
-28.0,227.0,27977.0,446.0,-5.085,-29.775,0.0,74.613,-86.665,-979.49,1.451,-3.21
0.0,228.0,27978.0,446.0,-27.811,-43.517,0.0,141.743,17.161,-1039.65,1.699,2.51
-27.0,223.0,27980.0,446.0,-14.935,-56.804,0.0,14.138,34.596,-1014.68,0.88,-4.17
-31.0,251.0,27980.0,446.0,7.292,-43.789,0.0,-30.575,-66.084,-957.63,4.384,1.64
-16.0,256.0,27982.0,446.0,-8.681,-35.779,0.0,114.755,-52.379,-1002.55,0.375,0.95
-9.0,246.0,27985.0,446.0,-22.647,-49.063,0.0,117.607,38.517,-1047.65,0.123,-0.91
-22.0,246.0,27984.0,446.0,0.956,-51.667,0.0,-29.181,1.758,-990.76,0.894,0.02
-37.0,275.0,27985.0,446.0,11.495,-35.545,0.0,12.599,-73.444,-964.25,4.267,-1.85
-24.0,284.0,27988.0,446.0,-14.334,-33.751,0.0,142.388,-24.358,-1021.35,2.074,-0.58
-30.0,287.0,27993.0,446.0,-17.134,-44.954,0.0,60.992,27.986,-1020.68,2.335,-1.45
-57.0,295.0,27993.0,446.0,6.041,-41.036,0.0,-43.926,-28.067,-957.68,1.713,-2.53
-35.0,319.0,27996.0,446.0,-2.442,-30.918,0.0,74.016,-55.397,-975.34,3.936,3.58
-47.0,320.0,27997.0,446.0,-23.405,-31.993,0.0,136.498,-4.756,-1031.15,0.946,-5.29
-49.0,327.0,27998.0,446.0,-9.711,-34.493,0.0,5.048,1.703,-988.98,2.367,1.0
-89.0,338.0,27996.0,444.0,6.488,-25.877,0.0,-11.903,-42.461,-952.56,1.816,-6.04
-66.0,351.0,27999.0,444.0,-12.394,-19.67,0.0,120.258,-39.962,-1000.85,2.265,2.33
-72.0,349.0,27999.0,444.0,-24.221,-22.812,0.0,100.881,-4.886,-1017.85,0.352,-3.0
-96.0,351.0,28000.0,444.0,-3.725,-24.552,0.0,-25.526,-8.989,-971.14,1.194,-2.42
-98.0,356.0,28000.0,444.0,0.835,-19.38,0.0,31.523,-36.64,-970.97,0.763,0.19
-104.0,358.0,28005.0,444.0,-19.335,-17.81,0.0,130.604,-24.515,-1019.2,0.63,-3.92
-95.0,355.0,28007.0,444.0,-16.279,-22.778,0.0,45.545,1.439,-1004.96,0.288,1.91
-128.0,353.0,28009.0,444.0,0.268,-23.817,0.0,-11.108,-12.047,-985.42,0.29,-4.75
-117.0,365.0,28013.0,444.0,-7.86,-18.636,0.0,86.597,-38.237,-1006.52,2.163,0.87
-131.0,362.0,28016.0,444.0,-19.327,-16.811,0.0,104.467,-27.208,-1009.21,-0.673,-4.55
-144.0,358.0,28021.0,444.0,-6.308,-22.184,0.0,9.987,1.303,-992.79,0.297,-1.51
-158.0,347.0,28019.0,444.0,-1.414,-23.771,0.0,25.019,-12.116,-1002.99,-1.603,-1.91
-153.0,356.0,28026.0,444.0,-15.106,-17.74,0.0,98.655,-42.428,-1004.01,1.454,-0.68
-155.0,350.0,28024.0,444.0,-18.223,-16.269,0.0,62.196,-26.972,-984.93,-1.194,-1.07
-181.0,354.0,28025.0,444.0,-6.184,-23.718,0.0,14.969,2.946,-1002.14,1.842,-4.14
-194.0,359.0,28024.0,444.0,-7.174,-24.784,0.0,62.422,-19.273,-1015.95,1.337,-3.11
-193.0,372.0,28026.0,444.0,-12.908,-18.65,0.0,82.385,-48.211,-986.18,1.961,-0.98
-223.0,373.0,28029.0,444.0,-5.889,-20.285,0.0,33.173,-19.634,-982.43,0.663,-5.48
-222.0,372.0,28031.0,444.0,-0.08,-28.032,0.0,35.325,6.629,-1012.88,0.84,0.56
-235.0,377.0,28033.0,444.0,-4.121,-25.776,0.0,72.854,-30.283,-997.76,1.165,-3.53
-232.0,385.0,28034.0,444.0,-4.056,-20.891,0.0,58.063,-42.272,-961.64,1.128,0.18
-241.0,389.0,28036.0,444.0,-1.412,-26.289,0.0,42.198,0.585,-1004.21,1.731,-1.75
-250.0,394.0,28035.0,444.0,-4.393,-30.932,0.0,63.989,0.395,-1027.54,1.984,-2.32
-265.0,409.0,28035.0,444.0,-5.379,-23.716,0.0,57.329,-45.757,-963.15,2.66,-3.47
-286.0,410.0,28036.0,446.0,-0.991,-20.08,0.0,35.382,-32.446,-954.99,0.02,-3.85
-285.0,406.0,28036.0,446.0,-1.793,-28.045,0.0,54.505,13.255,-1013.91,0.579,-0.16
-296.0,405.0,28033.0,446.0,-4.73,-28.344,0.0,63.701,-13.961,-994.89,0.43,-2.87
-276.0,424.0,28033.0,446.0,-1.123,-18.888,0.0,38.229,-53.767,-930.0,2.975,4.2
-305.0,427.0,28030.0,446.0,0.433,-19.909,0.0,47.742,-16.459,-974.87,1.051,-5.75
-306.0,434.0,28034.0,446.0,-4.971,-27.483,0.0,75.564,11.051,-1034.72,2.758,-1.27
-332.0,438.0,28032.0,446.0,-3.533,-22.371,0.0,50.32,-36.978,-982.04,0.713,-5.31
-346.0,457.0,28038.0,446.0,2.957,-15.61,0.0,23.682,-45.89,-935.62,3.295,-2.29
-348.0,450.0,28039.0,444.0,-1.161,-20.831,0.0,63.974,-0.273,-1013.56,-0.497,-0.96
-348.0,451.0,28040.0,444.0,-6.777,-23.973,0.0,72.202,-5.984,-1038.3,1.076,-0.9
-351.0,458.0,28039.0,444.0,0.927,-16.399,0.0,27.924,-47.996,-948.54,0.889,-0.07
-344.0,460.0,28037.0,444.0,2.688,-15.889,0.0,48.441,-23.006,-966.4,0.612,1.15
-342.0,472.0,28038.0,444.0,-5.667,-22.997,0.0,89.14,8.141,-1061.64,3.79,-0.97
-335.0,482.0,28032.0,444.0,-5.317,-20.047,0.0,57.645,-29.35,-1011.41,1.931,0.83
-353.0,506.0,28034.0,444.0,0.628,-15.611,0.0,23.573,-41.451,-937.95,4.593,-2.83
-357.0,502.0,28033.0,444.0,-2.19,-21.284,0.0,56.574,-2.282,-1011.95,0.204,-1.2
-348.0,505.0,28036.0,445.0,-8.542,-26.727,0.0,72.472,-0.144,-1057.33,1.618,0.78
-349.0,516.0,28034.0,445.0,-1.337,-19.612,0.0,31.094,-36.582,-969.71,1.967,0.31
-339.0,524.0,28036.0,445.0,5.418,-16.637,0.0,29.294,-23.312,-947.58,1.994,2.44
-354.0,531.0,28037.0,445.0,1.627,-21.144,0.0,69.304,6.015,-1037.49,2.572,-3.85
-351.0,540.0,28038.0,445.0,-1.29,-21.129,0.0,56.634,-18.186,-1024.27,2.215,0.14
-390.0,543.0,28037.0,445.0,3.933,-16.804,0.0,24.766,-35.962,-950.37,0.502,-7.09
-376.0,537.0,28040.0,445.0,4.544,-19.989,0.0,40.991,-7.431,-980.08,-0.415,2.69
-396.0,522.0,28041.0,445.0,0.585,-23.476,0.0,59.533,-4.442,-1042.64,-1.983,-4.45
-373.0,524.0,28039.0,444.0,5.725,-17.534,0.0,44.625,-37.304,-984.28,0.299,4.57
-387.0,516.0,28038.0,444.0,11.872,-14.736,0.0,38.003,-27.622,-942.86,-1.557,-2.73
-384.0,512.0,28040.0,444.0,14.788,-19.227,0.0,48.286,0.891,-1009.44,0.367,0.41
-393.0,526.0,28037.0,444.0,6.619,-13.382,0.0,50.652,-47.992,-974.25,2.031,-2.41
-389.0,536.0,28039.0,444.0,7.922,-16.336,0.0,32.488,-15.118,-976.88,2.641,1.17
-402.0,543.0,28040.0,444.0,14.627,-20.17,0.0,26.691,-2.346,-1030.11,2.275,-1.95
-379.0,563.0,28044.0,444.0,14.571,-14.687,0.0,50.933,-38.433,-1009.94,3.876,4.3
-384.0,562.0,28041.0,445.0,12.583,-11.352,0.0,58.887,-32.555,-979.4,-0.244,-1.68
-365.0,562.0,28047.0,445.0,18.22,-19.137,0.0,28.6,11.302,-1000.51,1.451,4.41
-383.0,546.0,28044.0,445.0,18.617,-20.265,0.0,34.507,-6.573,-1021.54,-2.367,-3.47
-362.0,550.0,28046.0,445.0,8.375,-11.689,0.0,77.726,-45.696,-1003.47,0.444,3.16
-374.0,532.0,28043.0,445.0,3.999,-12.156,0.0,58.817,-13.197,-994.37,-2.898,-2.82
-362.0,519.0,28045.0,445.0,14.926,-23.18,0.0,11.503,16.341,-993.27,-1.011,3.25
-363.0,524.0,28046.0,445.0,16.213,-20.178,0.0,45.551,-35.315,-1001.6,0.737,-0.15
-332.0,528.0,28042.0,445.0,4.555,-13.502,0.0,97.863,-51.939,-1010.82,0.282,4.28
-333.0,532.0,28047.0,444.0,4.77,-22.145,0.0,52.011,8.289,-985.98,2.113,-0.41
-330.0,533.0,28047.0,444.0,14.124,-29.201,0.0,14.45,6.3,-971.86,1.337,1.56
-310.0,553.0,28051.0,444.0,7.533,-20.19,0.0,75.054,-55.672,-1014.14,3.325,2.94
-304.0,561.0,28051.0,444.0,-2.78,-16.802,0.0,93.632,-37.331,-1028.23,1.38,-0.37
-295.0,553.0,28056.0,444.0,5.01,-27.271,0.0,19.47,26.494,-975.9,0.441,2.59
-303.0,547.0,28058.0,444.0,11.911,-28.008,0.0,19.228,-7.844,-979.01,-0.498,-0.8
-269.0,547.0,28058.0,444.0,-0.945,-17.01,0.0,96.629,-55.378,-1035.18,-0.758,5.16
-270.0,533.0,28061.0,444.0,-6.116,-21.221,0.0,75.883,1.832,-1016.28,-1.708,-1.1
-253.0,512.0,28062.0,446.0,7.902,-31.045,0.0,-0.235,26.915,-951.67,-2.244,4.82
-265.0,512.0,28064.0,446.0,9.913,-22.889,0.0,42.029,-41.447,-993.98,-0.353,-2.32
-242.0,516.0,28064.0,446.0,-4.954,-16.091,0.0,104.262,-48.867,-1041.01,0.369,2.66
-254.0,494.0,28066.0,446.0,-2.166,-26.121,0.0,39.376,16.304,-977.03,-2.902,-2.15
-247.0,489.0,28070.0,446.0,11.289,-30.931,0.0,-5.804,0.122,-943.51,0.057,2.99
-228.0,492.0,28069.0,446.0,3.444,-19.414,0.0,74.7,-64.093,-1025.17,-0.572,2.83
-206.0,499.0,28071.0,446.0,-8.226,-14.789,0.0,106.01,-32.663,-1037.29,1.469,2.55
-203.0,493.0,28071.0,446.0,3.082,-23.252,0.0,17.72,18.4,-950.56,0.372,1.56
-207.0,500.0,28071.0,447.0,14.463,-20.252,0.0,11.831,-24.014,-967.39,1.665,0.2
-185.0,514.0,28072.0,447.0,-0.674,-7.557,0.0,99.585,-63.843,-1047.56,1.781,2.58
-185.0,503.0,28072.0,447.0,-8.95,-9.791,0.0,79.008,-9.451,-997.48,-1.536,-0.93
-179.0,488.0,28076.0,447.0,5.392,-17.715,0.0,-9.608,14.872,-918.59,-1.546,2.92
-176.0,491.0,28076.0,447.0,10.982,-10.373,0.0,29.198,-39.125,-990.42,0.412,1.26
-139.0,504.0,28080.0,447.0,-2.903,-1.849,0.0,106.084,-47.644,-1041.45,2.066,5.42
-132.0,482.0,28081.0,447.0,-1.539,-8.284,0.0,50.544,8.99,-969.22,-3.178,1.31
-128.0,459.0,28086.0,447.0,12.552,-14.298,0.0,-2.284,10.574,-946.8,-3.191,2.38
-140.0,442.0,28086.0,445.0,9.91,-7.718,0.0,59.916,-46.294,-1024.54,-3.916,-2.73
-114.0,426.0,28090.0,445.0,-1.148,-3.643,0.0,94.315,-36.786,-1024.49,-3.43,3.57
-121.0,397.0,28093.0,445.0,5.326,-12.232,0.0,23.651,14.239,-951.4,-4.381,-0.44
-107.0,387.0,28094.0,445.0,17.236,-19.973,0.0,-2.731,-0.708,-963.34,-1.149,4.27
-85.0,387.0,28100.0,445.0,8.921,-11.932,0.0,74.064,-61.275,-1025.81,-0.881,3.55
-73.0,377.0,28096.0,445.0,-5.059,-10.546,0.0,101.387,-38.371,-998.99,-2.454,0.68
-82.0,366.0,28096.0,445.0,5.103,-22.252,0.0,22.534,16.811,-941.35,-0.606,-0.91
-89.0,376.0,28096.0,445.0,17.731,-22.249,0.0,7.421,-24.961,-979.5,2.071,-0.09
-62.0,390.0,28093.0,446.0,8.608,-9.802,0.0,90.16,-75.885,-1011.31,1.393,4.03
-49.0,393.0,28097.0,446.0,1.879,-13.15,0.0,84.915,-17.825,-960.52,0.815,1.5
-42.0,377.0,28097.0,446.0,17.398,-28.392,0.0,-6.668,24.094,-937.69,-1.457,3.14
-48.0,375.0,28101.0,446.0,25.754,-23.918,0.0,14.926,-48.685,-994.98,-1.061,-0.08
-24.0,374.0,28102.0,446.0,8.357,-16.04,0.0,116.181,-65.035,-1012.25,-1.306,2.61
-22.0,346.0,28103.0,446.0,3.286,-26.701,0.0,69.781,23.248,-956.72,-3.888,-0.27
-24.0,341.0,28105.0,446.0,24.439,-36.543,0.0,-36.771,20.929,-957.77,0.532,2.32
-19.0,355.0,28106.0,446.0,28.543,-22.736,0.0,31.183,-74.434,-1004.07,1.364,1.54
14.0,365.0,28107.0,447.0,7.157,-14.842,0.0,130.967,-50.73,-990.79,1.407,4.21
10.0,344.0,28106.0,447.0,11.412,-30.133,0.0,36.649,40.025,-967.45,-2.035,-0.26
15.0,342.0,28111.0,447.0,33.439,-32.209,0.0,-38.321,-6.049,-990.11,0.343,3.73
38.0,347.0,28107.0,447.0,21.118,-15.475,0.0,91.287,-81.93,-1017.55,-0.633,3.24
59.0,344.0,28112.0,447.0,-2.49,-15.834,0.0,132.498,-11.682,-995.54,-0.154,1.66
44.0,330.0,28112.0,447.0,13.553,-28.097,0.0,-18.102,37.264,-970.96,-0.533,-0.8
46.0,346.0,28118.0,447.0,27.588,-17.736,0.0,-17.996,-48.846,-995.1,2.537,2.56
76.0,368.0,28123.0,447.0,0.301,-3.534,0.0,141.835,-72.858,-1013.67,2.803,3.1
105.0,353.0,28123.0,446.0,-11.81,-14.824,0.0,93.207,24.061,-995.5,-1.207,4.37
99.0,347.0,28132.0,446.0,14.778,-25.51,0.0,-59.299,27.508,-982.33,0.666,2.47
108.0,350.0,28129.0,446.0,16.223,-10.631,0.0,34.75,-64.557,-1000.33,-0.621,2.43
152.0,348.0,28134.0,446.0,-14.979,-2.616,0.0,167.594,-44.184,-1009.15,-0.82,5.04
135.0,313.0,28132.0,446.0,-10.819,-16.274,0.0,38.425,40.311,-998.54,-4.858,-3.02
137.0,304.0,28137.0,446.0,18.571,-19.291,0.0,-67.042,3.911,-985.33,-0.706,4.24
145.0,306.0,28136.0,446.0,5.359,-2.366,0.0,91.771,-79.582,-998.09,-1.219,0.25
187.0,299.0,28137.0,446.0,-19.811,-1.028,0.0,147.205,-24.603,-1016.87,-1.334,5.41
160.0,282.0,28140.0,446.0,1.533,-15.457,0.0,-30.638,39.238,-995.12,-1.138,-2.67
164.0,298.0,28141.0,446.0,23.865,-13.323,0.0,-30.315,-31.57,-975.36,2.901,3.39
183.0,323.0,28145.0,446.0,-1.085,0.787,0.0,152.161,-81.66,-1008.55,3.296,0.68
183.0,322.0,28146.0,446.0,-10.099,-7.372,0.0,99.443,2.125,-1016.64,0.898,-1.5
159.0,322.0,28153.0,446.0,22.2,-20.828,0.0,-67.158,37.817,-969.28,2.14,-0.86
156.0,333.0,28154.0,446.0,26.001,-8.862,0.0,33.431,-59.17,-975.6,1.187,0.06
206.0,339.0,28155.0,446.0,-3.945,3.061,0.0,169.608,-65.179,-1022.87,-0.079,6.18
184.0,313.0,28155.0,446.0,3.959,-12.753,0.0,29.686,42.096,-1004.35,-2.934,-3.74
186.0,305.0,28155.0,447.0,36.429,-22.694,0.0,-73.389,22.745,-958.05,0.113,4.47
175.0,315.0,28152.0,447.0,23.366,-4.283,0.0,96.915,-88.09,-991.78,0.032,-3.49
203.0,315.0,28152.0,447.0,-3.446,0.502,0.0,159.691,-41.896,-1033.72,-0.501,1.96
167.0,283.0,28151.0,447.0,14.493,-22.599,0.0,-22.505,60.622,-977.79,-3.503,-4.65
165.0,290.0,28153.0,447.0,34.405,-24.004,0.0,-39.606,-16.17,-932.59,1.738,2.63
191.0,301.0,28153.0,447.0,6.205,-3.536,0.0,147.354,-104.954,-1006.75,-0.329,2.05
194.0,293.0,28157.0,447.0,-6.249,-9.3,0.0,107.702,-1.991,-1023.99,-0.784,-1.09
176.0,272.0,28161.0,447.0,24.855,-28.225,0.0,-64.36,54.796,-939.08,-1.573,0.09
180.0,289.0,28161.0,446.0,28.623,-13.387,0.0,32.041,-73.498,-947.44,2.024,1.54
217.0,304.0,28162.0,446.0,-2.965,4.748,0.0,174.844,-94.673,-1031.74,0.727,3.55
214.0,276.0,28164.0,446.0,0.951,-15.801,0.0,36.109,52.657,-991.58,-3.027,-0.13
200.0,270.0,28165.0,446.0,31.357,-29.426,0.0,-74.314,34.993,-917.8,0.82,1.45
225.0,283.0,28163.0,446.0,16.181,-5.464,0.0,97.039,-111.713,-991.78,-0.052,3.4
252.0,293.0,28167.0,446.0,-13.413,2.119,0.0,161.623,-52.609,-1038.12,1.109,1.98
231.0,260.0,28165.0,446.0,5.301,-21.82,0.0,-21.339,72.377,-959.16,-3.377,-1.76
224.0,270.0,28169.0,446.0,26.81,-20.755,0.0,-42.165,-17.457,-938.51,2.331,1.67
231.0,286.0,28167.0,449.0,2.402,5.375,0.0,135.582,-116.931,-1021.85,0.269,-1.19
254.0,278.0,28173.0,449.0,-11.838,-2.055,0.0,106.078,6.822,-1009.52,-0.501,2.92
223.0,255.0,28173.0,449.0,15.489,-23.674,0.0,-56.933,68.726,-918.29,-1.443,-2.65
249.0,284.0,28174.0,449.0,19.16,-6.818,0.0,26.17,-77.399,-946.6,4.068,6.19
253.0,315.0,28175.0,449.0,-13.817,14.619,0.0,167.447,-96.465,-1030.22,4.072,-2.9
257.0,296.0,28175.0,449.0,-14.322,-4.926,0.0,50.948,60.114,-972.01,-0.947,0.78
217.0,296.0,28180.0,449.0,10.598,-16.433,0.0,-52.83,37.449,-906.81,2.139,-4.42
234.0,312.0,28178.0,449.0,-1.483,10.298,0.0,88.521,-107.717,-984.36,0.447,2.28
259.0,321.0,28185.0,446.0,-26.355,16.475,0.0,146.87,-37.404,-1020.86,1.548,2.04
233.0,297.0,28183.0,446.0,-10.514,-7.182,0.0,-7.354,81.499,-956.72,-1.231,-3.21
239.0,317.0,28185.0,446.0,12.119,-8.484,0.0,-28.82,-13.16,-956.15,4.363,3.76
221.0,336.0,28184.0,446.0,-7.185,13.105,0.0,131.686,-106.1,-1038.21,1.374,-6.05
243.0,311.0,28187.0,446.0,-20.071,2.982,0.0,115.095,12.392,-1022.61,-3.739,2.47
194.0,280.0,28188.0,446.0,5.752,-19.824,0.0,-36.795,69.507,-960.63,-3.065,-6.92
217.0,300.0,28187.0,446.0,16.487,-7.16,0.0,15.338,-65.932,-989.05,2.819,5.75
217.0,330.0,28190.0,446.0,-5.24,10.817,0.0,142.953,-94.205,-1042.33,3.686,-2.85
219.0,317.0,28189.0,448.0,-5.202,-6.716,0.0,64.752,41.76,-1005.35,-0.36,0.17
191.0,309.0,28189.0,448.0,15.937,-23.273,0.0,-34.039,35.05,-954.27,0.576,-2.71
192.0,324.0,28188.0,448.0,7.871,-6.537,0.0,74.982,-92.608,-999.85,0.85,-0.64
215.0,325.0,28189.0,448.0,-14.57,-4.603,0.0,137.814,-40.769,-1036.65,-0.368,1.86
185.0,304.0,28188.0,448.0,-0.082,-25.433,0.0,7.508,65.371,-982.65,-1.142,-4.48
191.0,320.0,28187.0,448.0,19.461,-24.309,0.0,-20.413,-13.556,-956.17,3.627,3.64
173.0,345.0,28187.0,448.0,4.877,-2.479,0.0,109.659,-98.789,-1014.93,2.65,-5.46
200.0,331.0,28188.0,448.0,-6.504,-8.747,0.0,103.804,4.847,-1019.28,-1.645,3.69
150.0,299.0,28185.0,446.0,10.403,-30.268,0.0,-18.149,66.478,-976.47,-3.391,-7.58
155.0,318.0,28186.0,446.0,17.92,-19.426,0.0,11.803,-54.719,-971.59,3.039,2.31
147.0,336.0,28186.0,446.0,-2.703,-1.576,0.0,123.295,-89.01,-1013.95,1.558,-3.89
141.0,332.0,28190.0,446.0,-3.548,-16.654,0.0,66.292,32.956,-1003.49,1.042,-1.63
119.0,330.0,28189.0,446.0,17.808,-29.042,0.0,-24.098,29.808,-965.33,1.566,-1.91
110.0,352.0,28192.0,446.0,16.084,-8.626,0.0,59.808,-97.978,-994.68,2.095,-1.93
131.0,347.0,28193.0,446.0,-5.317,2.302,0.0,128.026,-55.248,-1027.57,-1.849,1.57
98.0,322.0,28193.0,446.0,-1.319,-17.383,0.0,34.797,64.365,-996.17,-2.063,-5.93
85.0,329.0,28192.0,447.0,13.469,-16.072,0.0,-11.377,-11.243,-968.84,1.879,-0.6
88.0,356.0,28193.0,447.0,0.438,9.545,0.0,95.141,-111.321,-1006.64,2.636,-0.7
105.0,359.0,28196.0,447.0,-14.291,5.513,0.0,109.646,-14.261,-1015.1,1.108,1.54
93.0,340.0,28192.0,447.0,0.408,-14.58,0.0,-3.49,53.536,-987.5,-1.158,-0.61
87.0,355.0,28195.0,447.0,11.805,-4.371,0.0,2.683,-60.011,-985.75,2.076,0.45
84.0,359.0,28192.0,447.0,-7.759,14.821,0.0,115.531,-85.784,-1018.71,-1.102,-2.78
83.0,350.0,28194.0,447.0,-18.852,1.992,0.0,90.603,35.342,-1012.52,0.216,-1.41
59.0,348.0,28191.0,447.0,-1.613,-5.87,0.0,-19.854,21.757,-985.87,1.114,-2.43
74.0,381.0,28193.0,448.0,1.287,13.703,0.0,36.278,-94.609,-992.36,4.56,3.38
83.0,393.0,28195.0,448.0,-20.887,18.878,0.0,137.516,-45.846,-1011.69,1.863,-0.86
84.0,385.0,28194.0,448.0,-19.649,-1.27,0.0,52.73,55.147,-1007.27,1.132,0.0
54.0,392.0,28196.0,448.0,0.135,-0.557,0.0,-23.746,-19.717,-982.82,1.708,-3.54
64.0,409.0,28197.0,448.0,-10.01,18.68,0.0,89.192,-86.285,-984.67,1.4,0.88
67.0,403.0,28201.0,448.0,-29.652,13.881,0.0,133.197,2.137,-1004.19,-0.114,-1.97
44.0,390.0,28199.0,448.0,-14.597,3.231,0.0,1.002,28.631,-1004.22,-0.738,-3.11
36.0,410.0,28202.0,448.0,4.241,13.019,0.0,-13.709,-60.368,-973.97,2.907,0.56
39.0,411.0,28201.0,447.0,-12.393,18.946,0.0,122.216,-49.71,-980.58,-0.501,-1.73
69.0,394.0,28202.0,447.0,-23.524,4.561,0.0,107.964,30.357,-1009.62,-1.389,4.12
31.0,380.0,28200.0,447.0,-2.424,0.094,0.0,-16.242,-4.64,-997.01,-1.974,-5.24
38.0,394.0,28199.0,447.0,4.437,11.201,0.0,31.556,-66.097,-965.29,1.465,2.0
11.0,382.0,28200.0,447.0,-13.901,9.772,0.0,131.504,-20.612,-983.13,-2.101,-8.0
3.0,375.0,28202.0,447.0,-11.222,-1.783,0.0,44.735,18.503,-1013.79,0.163,-1.29
-33.0,376.0,28202.0,447.0,9.408,1.05,0.0,-30.024,-34.428,-981.87,-0.04,-4.88
-11.0,385.0,28205.0,447.0,0.979,7.545,0.0,78.595,-50.946,-954.96,1.005,3.54
6.0,384.0,28206.0,447.0,-17.449,0.261,0.0,123.725,2.121,-997.01,0.865,1.26
-29.0,384.0,28205.0,447.0,0.176,-6.747,0.0,5.806,3.792,-1014.75,0.943,-5.88
-30.0,389.0,28205.0,447.0,16.818,-3.128,0.0,1.099,-36.124,-961.79,0.803,1.44
-44.0,385.0,28207.0,447.0,1.587,-3.178,0.0,123.479,-23.012,-967.99,-0.653,-5.23
-23.0,375.0,28208.0,447.0,-6.405,-8.438,0.0,83.491,1.462,-1029.62,-1.118,3.24
-44.0,362.0,28208.0,447.0,14.491,-8.861,0.0,-33.646,-17.826,-1000.57,-2.085,-1.55
-16.0,363.0,28209.0,447.0,18.321,-5.484,0.0,34.311,-33.351,-944.39,-0.121,6.04
-6.0,349.0,28204.0,447.0,-3.66,-6.627,0.0,139.243,-15.231,-996.5,-2.274,-0.82
-6.0,350.0,28205.0,445.0,-2.651,-9.523,0.0,54.537,-11.433,-1042.59,0.74,-0.19
-19.0,344.0,28198.0,445.0,17.012,-7.939,0.0,-22.327,-28.358,-977.02,-1.222,-0.14
-17.0,355.0,28201.0,445.0,9.342,-5.953,0.0,79.802,-30.859,-955.59,2.027,-0.55
2.0,354.0,28200.0,445.0,-5.073,-0.659,0.0,103.949,-23.717,-1034.62,-0.137,2.29
-7.0,358.0,28202.0,445.0,10.879,3.845,0.0,-13.225,-23.138,-1036.2,1.073,0.06
-7.0,360.0,28204.0,445.0,19.595,8.968,0.0,8.389,-28.053,-953.67,0.366,1.4
23.0,359.0,28204.0,445.0,0.284,12.847,0.0,118.717,-25.553,-973.0,-0.095,3.91
20.0,363.0,28205.0,445.0,-3.564,16.208,0.0,64.768,-29.781,-1047.45,0.626,-0.92
22.0,365.0,28202.0,447.0,11.772,17.389,0.0,-11.923,-22.629,-988.24,0.68,2.31
26.0,366.0,28202.0,447.0,7.351,16.568,0.0,61.302,-15.093,-931.72,0.513,0.58
49.0,363.0,28200.0,447.0,-3.412,16.597,0.0,93.792,-22.146,-1000.96,-0.404,3.2
52.0,364.0,28203.0,447.0,7.016,16.939,0.0,8.164,-23.38,-1036.99,0.403,1.89
68.0,349.0,28197.0,447.0,16.171,16.009,0.0,12.538,-18.354,-966.54,-2.762,4.44
100.0,347.0,28201.0,447.0,1.741,13.434,0.0,99.617,-19.858,-954.91,-0.14,4.99
90.0,337.0,28199.0,447.0,-4.064,13.822,0.0,71.483,-30.623,-1034.24,-2.016,-2.66
102.0,329.0,28201.0,447.0,6.648,11.103,0.0,6.681,-18.184,-1016.75,-1.386,3.82
85.0,320.0,28202.0,451.0,4.54,5.707,0.0,54.376,-8.619,-951.6,-1.159,-3.52
136.0,319.0,28202.0,451.0,-5.109,4.493,0.0,86.141,-22.934,-968.33,0.048,9.19
130.0,314.0,28203.0,451.0,0.471,6.183,0.0,28.557,-34.182,-1030.34,-1.227,-0.35
158.0,301.0,28199.0,451.0,3.727,4.882,0.0,33.086,-16.003,-995.15,-2.299,6.16
166.0,283.0,28199.0,451.0,-8.275,1.383,0.0,93.946,-6.415,-948.37,-2.967,0.37
166.0,270.0,28197.0,451.0,-11.808,3.591,0.0,65.223,-27.938,-1005.97,-2.621,-0.4
178.0,265.0,28197.0,451.0,-3.425,5.997,0.0,18.114,-29.892,-1027.01,-1.051,3.54
188.0,250.0,28196.0,451.0,-7.865,2.121,0.0,69.228,-10.124,-972.46,-2.529,1.47
225.0,240.0,28196.0,447.0,-15.131,-1.558,0.0,82.945,-8.972,-957.52,-1.529,6.45
202.0,224.0,28198.0,447.0,-5.561,-0.225,0.0,17.67,-27.591,-1013.67,-3.175,-3.31
227.0,204.0,28199.0,447.0,-2.673,-0.335,0.0,37.748,-17.248,-1007.95,-3.736,5.54
208.0,177.0,28197.0,447.0,-16.035,-4.218,0.0,102.976,-1.826,-971.86,-4.645,-5.46
226.0,164.0,28199.0,447.0,-15.083,-2.624,0.0,50.961,-22.222,-990.59,-2.466,3.73
208.0,159.0,28197.0,447.0,0.918,-0.526,0.0,0.888,-35.994,-1023.7,-1.523,-1.78
228.0,153.0,28195.0,447.0,-4.309,-3.853,0.0,79.844,-14.942,-995.96,-0.766,3.08
237.0,144.0,28192.0,447.0,-12.556,-8.844,0.0,94.896,-6.455,-964.91,-1.243,0.49
217.0,141.0,28194.0,447.0,2.723,-8.108,0.0,2.748,-27.313,-997.95,-0.683,-2.27
223.0,132.0,28194.0,447.0,5.489,-4.658,0.0,32.595,-29.326,-1017.1,-2.088,2.02
212.0,122.0,28194.0,447.0,-13.745,-6.36,0.0,121.377,-10.049,-993.56,-1.418,-4.38
214.0,119.0,28198.0,447.0,-10.805,-6.944,0.0,40.158,-13.719,-977.59,-0.343,0.89
189.0,120.0,28200.0,447.0,11.88,-2.632,0.0,-25.589,-34.908,-997.21,-0.129,-2.41
214.0,130.0,28203.0,447.0,3.134,0.2,0.0,91.767,-31.065,-1004.4,1.715,3.82
232.0,124.0,28201.0,447.0,-13.247,-2.247,0.0,127.453,-10.945,-987.25,-0.761,1.15
222.0,125.0,28204.0,447.0,2.323,-2.42,0.0,-10.276,-11.707,-973.47,0.62,0.28
202.0,125.0,28201.0,446.0,13.751,1.332,0.0,-1.085,-27.639,-997.88,-0.279,-2.24
210.0,125.0,28202.0,446.0,-10.885,4.715,0.0,140.874,-28.045,-1014.1,0.02,-1.22
197.0,123.0,28200.0,446.0,-15.379,3.945,0.0,70.748,-12.795,-994.7,-0.162,-3.13
170.0,125.0,28205.0,446.0,13.887,1.399,0.0,-59.203,-15.05,-979.31,0.774,-1.73
174.0,123.0,28204.0,446.0,12.934,3.735,0.0,49.902,-33.724,-995.94,-0.747,0.9
199.0,121.0,28204.0,446.0,-11.645,4.016,0.0,147.083,-26.561,-1005.69,-0.507,2.05
168.0,114.0,28207.0,446.0,3.271,-0.511,0.0,4.345,-5.391,-973.04,-0.818,-4.52
159.0,112.0,28205.0,446.0,27.225,-1.5,0.0,-40.1,-17.517,-961.76,-0.299,1.27
168.0,124.0,28209.0,446.0,7.116,4.293,0.0,128.388,-44.739,-1004.31,1.765,-0.75
172.0,123.0,28206.0,446.0,-8.586,5.16,0.0,112.519,-26.996,-1008.39,-0.364,-1.07
154.0,126.0,28210.0,446.0,20.065,0.215,0.0,-61.248,-3.665,-955.21,1.285,0.12
141.0,131.0,28211.0,446.0,28.117,2.594,0.0,8.789,-31.049,-971.3,0.774,-1.13
177.0,134.0,28210.0,446.0,-4.723,8.593,0.0,172.118,-47.109,-1018.73,-0.15,3.46
148.0,119.0,28211.0,446.0,-6.377,5.18,0.0,56.686,-5.683,-1001.12,-2.453,-6.03
136.0,102.0,28213.0,446.0,24.411,-1.962,0.0,-75.366,11.338,-959.16,-2.308,1.77
114.0,96.0,28213.0,446.0,14.055,5.483,0.0,77.766,-44.641,-1002.54,-1.758,-5.09
151.0,103.0,28213.0,444.0,-15.48,11.809,0.0,159.783,-53.477,-1040.42,0.34,3.93
119.0,89.0,28214.0,444.0,2.532,3.041,0.0,-20.119,4.939,-979.16,-1.811,-4.12
117.0,91.0,28215.0,444.0,23.524,-3.121,0.0,-41.379,-1.162,-956.02,1.104,2.78
149.0,100.0,28213.0,444.0,-6.383,5.966,0.0,156.465,-60.377,-1023.12,0.552,2.92
137.0,102.0,28213.0,444.0,-22.223,9.193,0.0,120.189,-35.637,-1024.77,-0.021,-4.49
116.0,88.0,28217.0,444.0,8.428,-1.155,0.0,-62.207,18.212,-943.77,-1.397,-0.45
93.0,91.0,28220.0,444.0,12.909,1.428,0.0,29.702,-29.306,-973.77,0.325,-3.79
139.0,100.0,28222.0,444.0,-19.805,15.01,0.0,166.749,-68.441,-1047.41,0.438,5.4
114.0,80.0,28227.0,446.0,-12.488,9.153,0.0,19.165,4.025,-1001.81,-3.095,-3.74
118.0,68.0,28231.0,446.0,16.031,-2.834,0.0,-71.407,32.191,-944.59,-0.752,4.7
113.0,67.0,28231.0,446.0,-3.17,7.674,0.0,109.386,-55.461,-1015.66,-1.282,-2.84
129.0,82.0,28233.0,446.0,-31.759,19.895,0.0,157.363,-67.913,-1056.14,1.609,-0.2
102.0,64.0,28232.0,446.0,-11.033,7.12,0.0,-30.265,27.998,-968.78,-1.925,-2.67
84.0,73.0,28235.0,446.0,8.549,-3.215,0.0,-28.915,20.247,-944.75,3.109,-0.92
126.0,94.0,28232.0,446.0,-19.33,13.144,0.0,155.551,-83.594,-1030.27,2.289,5.1
112.0,102.0,28234.0,446.0,-29.65,17.536,0.0,97.625,-43.128,-1035.79,0.898,-4.25
96.0,86.0,28235.0,444.0,0.476,-0.612,0.0,-62.805,46.814,-944.62,-0.978,0.44
86.0,96.0,28235.0,444.0,-0.665,2.512,0.0,46.609,-28.602,-971.85,1.886,-1.68
111.0,121.0,28237.0,444.0,-31.024,22.18,0.0,166.766,-97.901,-1056.67,2.599,1.22
104.0,99.0,28239.0,444.0,-22.973,12.889,0.0,24.656,10.316,-996.92,-3.237,-0.43
81.0,73.0,28243.0,444.0,6.421,-8.114,0.0,-48.613,57.239,-937.73,-2.675,-1.35
102.0,63.0,28240.0,444.0,-7.019,3.476,0.0,112.131,-65.276,-1015.13,-3.457,2.24
99.0,66.0,28245.0,444.0,-24.787,15.574,0.0,136.667,-73.443,-1052.06,-1.017,-3.35
83.0,29.0,28244.0,444.0,-3.512,-7.228,0.0,-23.947,51.297,-967.17,-5.014,-0.76
67.0,27.0,28247.0,444.0,11.228,-19.192,0.0,-7.778,18.812,-954.87,0.947,-1.2
86.0,45.0,28248.0,444.0,-12.263,0.924,0.0,141.394,-106.318,-1042.02,0.928,0.93
90.0,26.0,28251.0,444.0,-20.866,0.67,0.0,92.186,-33.555,-1016.99,-4.148,-0.55
61.0,-6.0,28255.0,444.0,5.212,-25.006,0.0,-37.392,75.302,-933.78,-3.527,-2.77
89.0,-8.0,28257.0,444.0,6.702,-23.779,0.0,50.234,-21.432,-972.19,-0.462,5.67
97.0,15.0,28261.0,444.0,-17.515,-1.684,0.0,154.798,-107.503,-1049.98,2.034,-1.78
113.0,0.0,28261.0,444.0,-12.287,-13.58,0.0,39.774,19.9,-997.69,-1.743,3.65
85.0,-10.0,28266.0,444.0,9.659,-36.116,0.0,-31.225,69.706,-943.63,0.983,-2.96
112.0,10.0,28264.0,444.0,-2.874,-19.569,0.0,98.96,-78.491,-1009.69,2.227,3.93
127.0,23.0,28270.0,444.0,-24.055,-1.944,0.0,129.612,-77.518,-1041.72,0.834,0.61
113.0,-9.0,28271.0,444.0,-8.887,-22.051,0.0,-8.647,67.757,-975.84,-3.668,-0.81
132.0,-18.0,28272.0,444.0,3.025,-27.931,0.0,-2.992,20.093,-965.75,-0.438,5.55
131.0,0.0,28271.0,444.0,-19.369,0.443,0.0,131.514,-117.026,-1048.71,0.555,-2.78
157.0,-9.0,28271.0,444.0,-27.533,0.849,0.0,88.139,-21.335,-1025.22,-1.894,4.16
117.0,-27.0,28273.0,444.0,-4.72,-22.139,0.0,-34.516,74.272,-953.39,-0.593,-5.13
148.0,0.0,28273.0,444.0,-2.275,-10.488,0.0,37.381,-55.43,-989.0,4.494,6.68
149.0,46.0,28279.0,444.0,-26.195,16.014,0.0,141.363,-119.168,-1038.18,6.071,-2.61
159.0,38.0,28280.0,444.0,-23.713,3.44,0.0,45.179,26.973,-981.13,-0.102,2.32
133.0,40.0,28283.0,444.0,-2.987,-13.816,0.0,-30.719,52.801,-946.64,2.917,-2.51
131.0,77.0,28283.0,444.0,-14.121,13.752,0.0,88.076,-109.896,-1011.46,4.429,-1.52
157.0,95.0,28285.0,444.0,-34.397,30.32,0.0,131.006,-79.178,-1023.85,1.754,2.77
116.0,81.0,28283.0,444.0,-20.063,7.871,0.0,-0.481,71.955,-966.83,0.398,-6.42
135.0,94.0,28282.0,444.0,-4.756,6.693,0.0,-11.708,-3.281,-962.3,3.149,5.78
115.0,119.0,28282.0,444.0,-21.5,33.776,0.0,120.148,-124.131,-1030.48,1.779,-6.09
132.0,102.0,28283.0,444.0,-29.387,26.795,0.0,92.251,1.136,-1015.16,-2.599,2.12
84.0,65.0,28284.0,444.0,-7.834,1.28,0.0,-24.203,80.622,-966.92,-4.042,-6.95
98.0,83.0,28284.0,444.0,-3.686,14.915,0.0,41.586,-71.795,-996.68,1.971,3.05
100.0,110.0,28288.0,444.0,-23.874,33.908,0.0,139.241,-100.822,-1028.47,2.755,-2.3
89.0,89.0,28290.0,444.0,-20.148,13.075,0.0,51.498,52.256,-993.12,-1.617,-2.13
76.0,83.0,28290.0,444.0,2.273,-0.478,0.0,-29.16,29.969,-964.85,0.534,-0.12
54.0,93.0,28292.0,444.0,-2.821,23.549,0.0,72.411,-116.847,-1010.29,-1.139,-5.01
86.0,72.0,28295.0,444.0,-21.157,26.616,0.0,129.143,-43.698,-1022.2,-4.812,4.03
45.0,37.0,28296.0,446.0,-9.156,-1.616,0.0,14.223,82.756,-984.31,-3.731,-6.98
55.0,47.0,28299.0,446.0,6.377,-0.431,0.0,-11.411,-25.452,-978.32,1.931,4.1
42.0,70.0,28300.0,446.0,-8.841,24.239,0.0,112.878,-121.236,-1017.03,1.453,-4.68
55.0,47.0,28305.0,446.0,-20.633,14.128,0.0,99.987,18.093,-1006.18,-3.289,1.07
22.0,9.0,28301.0,446.0,-3.082,-8.844,0.0,-18.681,71.371,-975.04,-4.729,-4.3
24.0,22.0,28303.0,446.0,2.073,5.04,0.0,29.644,-84.906,-992.09,0.591,1.27
40.0,30.0,28301.0,446.0,-18.926,17.105,0.0,134.155,-84.805,-1020.26,-0.375,0.43
29.0,12.0,28302.0,446.0,-19.123,-7.504,0.0,59.527,58.959,-1011.45,-0.985,-2.38
22.0,13.0,28303.0,445.0,2.276,-15.138,0.0,-23.43,4.572,-988.76,1.105,1.04
22.0,31.0,28305.0,445.0,-3.196,8.596,0.0,75.959,-119.906,-1005.25,0.225,-0.82
58.0,13.0,28308.0,445.0,-22.132,4.657,0.0,133.772,-19.134,-1018.77,-3.366,4.56
42.0,-28.0,28306.0,445.0,-12.095,-21.247,0.0,24.066,75.781,-1002.51,-5.381,-2.36
44.0,-20.0,28307.0,445.0,5.476,-12.15,0.0,-11.806,-53.963,-986.45,0.565,2.56
40.0,-2.0,28306.0,445.0,-7.901,9.349,0.0,106.214,-109.508,-1010.99,0.789,-2.51
50.0,-10.0,28310.0,445.0,-20.928,-4.875,0.0,108.413,24.58,-1017.43,-0.07,0.16
30.0,-9.0,28306.0,445.0,-2.758,-19.337,0.0,-12.761,33.006,-989.31,1.85,-1.81
39.0,22.0,28310.0,444.0,4.923,0.358,0.0,21.057,-99.227,-986.24,4.014,2.81
58.0,26.0,28307.0,444.0,-16.946,11.46,0.0,135.607,-59.809,-1009.11,-0.508,1.02
56.0,12.0,28308.0,444.0,-20.919,-8.775,0.0,73.276,62.733,-1005.89,-0.069,-0.98
35.0,20.0,28305.0,444.0,-1.224,-7.735,0.0,-21.599,-13.703,-983.02,1.928,-1.9
41.0,52.0,28303.0,444.0,-7.913,16.669,0.0,76.596,-109.811,-987.21,3.522,0.41
60.0,54.0,28306.0,444.0,-31.802,11.505,0.0,144.681,-7.417,-1005.86,0.872,0.95
52.0,42.0,28300.0,444.0,-22.889,-8.705,0.0,22.305,56.87,-996.73,0.2,-0.58
41.0,65.0,28303.0,444.0,-5.558,0.872,0.0,-16.614,-54.435,-978.71,3.446,0.02
48.0,74.0,28301.0,445.0,-22.547,14.462,0.0,117.016,-70.707,-1001.05,0.276,-0.67
60.0,64.0,28305.0,445.0,-37.257,-1.368,0.0,116.167,42.688,-1014.61,0.146,0.28
35.0,59.0,28305.0,445.0,-18.18,-8.917,0.0,-14.756,17.09,-995.94,0.231,-2.78
46.0,84.0,28308.0,445.0,-10.744,8.906,0.0,24.568,-82.865,-979.39,3.1,3.17
54.0,90.0,28310.0,445.0,-32.811,11.324,0.0,141.714,-29.073,-1001.29,1.113,-1.43
64.0,89.0,28309.0,445.0,-34.683,-4.774,0.0,70.027,45.53,-1010.39,1.898,1.54
31.0,101.0,28308.0,445.0,-11.832,0.483,0.0,-30.158,-33.417,-983.58,2.065,-3.94
42.0,123.0,28308.0,445.0,-15.254,15.559,0.0,72.003,-76.321,-977.49,2.701,1.56
30.0,117.0,28309.0,443.0,-34.988,6.398,0.0,140.651,15.052,-1004.56,0.047,-5.2
5.0,114.0,28306.0,443.0,-21.659,-3.675,0.0,15.235,23.614,-1005.57,0.878,-3.77
-28.0,132.0,28307.0,443.0,-3.056,9.328,0.0,-16.111,-67.905,-973.23,2.21,-4.58
-32.0,130.0,28307.0,443.0,-17.898,15.274,0.0,111.607,-45.838,-983.38,-1.059,-2.7
-16.0,113.0,28308.0,443.0,-29.644,1.472,0.0,106.334,31.902,-1019.18,-1.721,1.43
-65.0,100.0,28305.0,443.0,-8.691,-1.968,0.0,-8.75,-9.45,-1010.44,-2.156,-7.86
-65.0,107.0,28306.0,443.0,-0.421,6.197,0.0,32.771,-55.182,-968.07,0.304,0.61
-102.0,95.0,28305.0,443.0,-16.87,1.166,0.0,130.12,-5.467,-995.34,-1.708,-10.02
-112.0,94.0,28307.0,446.0,-12.794,-6.466,0.0,54.409,7.845,-1032.42,0.795,-1.97
-156.0,96.0,28306.0,446.0,4.739,0.564,0.0,-19.154,-51.861,-996.97,-0.517,-6.57
-142.0,107.0,28308.0,446.0,-2.685,4.359,0.0,74.192,-42.309,-966.25,1.425,2.06
-148.0,98.0,28307.0,446.0,-23.001,-4.434,0.0,130.771,7.219,-1012.94,-0.696,-3.89
-179.0,101.0,28305.0,446.0,-11.883,-4.646,0.0,30.95,-17.321,-1038.01,0.737,-5.49
-202.0,112.0,28305.0,446.0,4.895,2.839,0.0,2.324,-48.716,-976.74,1.293,-3.07
-218.0,108.0,28306.0,446.0,-5.575,2.065,0.0,105.673,-18.833,-965.92,-0.668,-5.02
-197.0,109.0,28307.0,446.0,-15.388,-1.893,0.0,90.817,-4.568,-1024.75,0.995,2.67
-230.0,108.0,28306.0,445.0,1.188,2.2,0.0,-12.26,-35.476,-1012.51,-0.772,-4.6
-220.0,110.0,28307.0,445.0,5.055,3.57,0.0,31.37,-26.486,-951.93,0.31,2.67
-233.0,96.0,28306.0,445.0,-14.12,-1.258,0.0,123.902,-1.846,-996.27,-2.052,-5.11
-250.0,94.0,28308.0,445.0,-13.957,-1.184,0.0,54.334,-22.518,-1053.85,-0.281,-3.57
-277.0,87.0,28305.0,445.0,2.438,1.989,0.0,-12.207,-35.315,-985.79,-1.822,-3.36
-267.0,81.0,28308.0,445.0,-3.883,-1.604,0.0,72.516,-9.306,-939.07,-0.818,1.26
-252.0,72.0,28305.0,445.0,-16.271,-3.707,0.0,103.357,-10.14,-1012.59,-1.509,1.12
-261.0,74.0,28304.0,445.0,-4.773,1.015,0.0,11.776,-36.963,-1025.44,0.049,-0.62
-268.0,69.0,28301.0,446.0,5.113,1.701,0.0,12.562,-22.94,-943.05,-1.085,-0.19
-267.0,67.0,28300.0,446.0,-9.995,-3.211,0.0,106.429,-5.965,-961.13,0.112,-1.65
-266.0,72.0,28300.0,446.0,-15.881,-0.721,0.0,76.287,-33.69,-1047.35,0.754,-0.91
-272.0,69.0,28299.0,446.0,0.652,2.605,0.0,-12.651,-38.475,-990.17,-1.248,0.84
-264.0,64.0,28304.0,446.0,1.344,-2.967,0.0,43.835,-3.824,-917.46,-0.364,1.73
-238.0,53.0,28303.0,446.0,-13.435,-5.35,0.0,112.597,-9.763,-991.62,-1.689,3.09
-243.0,59.0,28308.0,446.0,-6.89,0.975,0.0,32.725,-44.139,-1037.17,0.445,-0.53
-248.0,53.0,28306.0,446.0,6.653,1.356,0.0,0.736,-23.154,-955.54,-1.235,0.55
-242.0,48.0,28310.0,444.0,-5.72,-6.614,0.0,87.856,5.086,-939.09,-0.034,-0.0
-243.0,51.0,28309.0,444.0,-15.991,-4.832,0.0,85.469,-30.679,-1034.47,0.16,-1.37
-243.0,55.0,28310.0,444.0,-5.881,0.622,0.0,7.065,-46.667,-1016.51,0.159,1.22
-253.0,49.0,28307.0,444.0,-1.147,-3.823,0.0,37.122,-3.382,-929.78,-0.767,-1.45
-215.0,45.0,28307.0,444.0,-12.608,-8.283,0.0,101.017,-0.975,-964.76,0.042,5.73
-230.0,60.0,28306.0,444.0,-11.827,-0.468,0.0,56.742,-48.845,-1039.01,2.111,-3.23
-218.0,70.0,28302.0,444.0,-2.624,2.709,0.0,21.788,-33.921,-979.65,1.589,3.35
-229.0,80.0,28306.0,444.0,-8.453,-5.444,0.0,70.867,6.127,-931.55,2.931,-2.98
-216.0,97.0,28305.0,445.0,-14.85,-5.345,0.0,76.112,-23.341,-1002.64,3.382,1.68
-219.0,112.0,28309.0,445.0,-7.641,2.182,0.0,23.59,-53.774,-1031.31,2.04,0.29
-211.0,105.0,28308.0,445.0,-1.15,-1.022,0.0,34.787,-7.383,-956.73,-0.945,1.95
-176.0,86.0,28310.0,445.0,-6.294,-9.208,0.0,79.122,14.664,-945.35,-2.621,6.17
-197.0,83.0,28308.0,445.0,-6.335,-2.77,0.0,60.955,-40.908,-1040.92,-1.213,-4.61
-171.0,82.0,28308.0,445.0,-3.402,1.804,0.0,36.924,-45.047,-1017.39,-0.938,5.61
-193.0,69.0,28308.0,445.0,-6.911,-6.777,0.0,61.839,6.35,-937.7,-1.632,-4.74
-152.0,71.0,28307.0,445.0,-10.514,-10.779,0.0,63.856,-7.911,-967.67,1.026,7.71
-145.0,84.0,28309.0,443.0,-6.866,-1.006,0.0,35.924,-62.206,-1027.4,1.18,1.78
-124.0,86.0,28306.0,443.0,-2.29,-0.213,0.0,49.242,-27.357,-977.49,0.265,4.28
-114.0,82.0,28308.0,443.0,-2.035,-9.194,0.0,64.671,12.239,-934.04,0.364,1.53
-126.0,99.0,28308.0,443.0,4.182,-4.336,0.0,40.252,-39.677,-1007.43,2.869,-2.07
-117.0,111.0,28309.0,443.0,3.06,7.49,0.0,37.212,-62.322,-1023.64,1.213,2.25
-109.0,99.0,28309.0,443.0,-5.244,3.155,0.0,67.048,-2.359,-957.65,-1.837,1.02
-70.0,80.0,28311.0,443.0,-9.312,-6.188,0.0,53.646,20.403,-950.46,-2.435,7.6
-88.0,66.0,28309.0,443.0,0.654,-0.88,0.0,22.596,-39.209,-1016.32,-3.311,-2.64
-49.0,57.0,28307.0,445.0,0.426,4.205,0.0,59.303,-41.113,-1005.52,-2.375,7.61
-69.0,34.0,28306.0,445.0,-6.32,-5.721,0.0,86.19,17.638,-964.8,-3.342,-5.1
-47.0,31.0,28303.0,445.0,1.059,-9.096,0.0,31.701,-3.982,-989.74,0.141,4.88
-48.0,33.0,28305.0,445.0,5.172,0.257,0.0,21.978,-61.414,-1029.1,-1.026,0.89
-23.0,19.0,28303.0,445.0,-7.274,-0.84,0.0,87.607,-23.591,-1000.24,-2.857,3.72
-3.0,-8.0,28303.0,445.0,-14.817,-12.464,0.0,73.625,19.995,-959.82,-4.16,3.29
-22.0,-14.0,28305.0,445.0,-0.072,-6.487,0.0,8.13,-38.505,-999.52,-1.711,-2.35
7.0,-21.0,28304.0,445.0,0.936,5.275,0.0,56.994,-65.359,-1012.58,-2.959,5.88
-6.0,-37.0,28305.0,444.0,-12.471,-1.272,0.0,115.644,3.424,-988.15,-2.343,-4.9
16.0,-44.0,28307.0,444.0,-3.214,-7.793,0.0,29.502,6.745,-984.56,-0.53,5.49
-15.0,-46.0,28310.0,444.0,10.323,2.058,0.0,-2.997,-67.758,-1015.68,-1.978,-4.64
11.0,-47.0,28311.0,444.0,-5.516,5.29,0.0,110.486,-45.881,-1016.37,-1.026,3.52
10.0,-81.0,28310.0,444.0,-19.817,-9.167,0.0,112.126,24.725,-984.2,-5.189,-2.11
0.0,-85.0,28312.0,444.0,-1.683,-10.679,0.0,-4.174,-14.733,-990.89,-0.765,-0.39
2.0,-82.0,28310.0,444.0,4.031,2.074,0.0,37.668,-72.388,-1023.24,-0.989,1.19
12.0,-88.0,28309.0,444.0,-17.736,-0.513,0.0,147.414,-16.291,-1016.24,-1.145,-1.09
18.0,-95.0,28310.0,444.0,-17.002,-12.377,0.0,57.523,19.78,-974.78,-0.184,0.95
-10.0,-89.0,28313.0,444.0,5.141,-5.517,0.0,-30.452,-50.707,-990.81,0.255,-3.09
22.0,-85.0,28313.0,444.0,-6.599,2.809,0.0,97.17,-60.35,-1022.26,-0.566,5.19
19.0,-106.0,28315.0,444.0,-25.844,-7.738,0.0,138.142,18.152,-1001.81,-2.852,-3.37
10.0,-114.0,28318.0,444.0,-5.179,-14.045,0.0,-15.647,6.31,-976.89,-0.838,0.54
-13.0,-107.0,28319.0,444.0,9.963,-2.243,0.0,-3.259,-64.549,-1007.28,-0.082,-3.01
6.0,-103.0,28323.0,444.0,-13.442,0.116,0.0,147.033,-32.049,-1027.39,0.502,0.92
3.0,-121.0,28320.0,444.0,-19.045,-15.04,0.0,73.264,29.095,-988.25,-1.993,-1.2
-15.0,-110.0,28325.0,444.0,8.921,-16.543,0.0,-61.439,-18.866,-979.49,2.089,-0.1
-5.0,-104.0,28322.0,444.0,3.619,-6.893,0.0,60.767,-63.794,-1016.43,-0.213,1.68
5.0,-108.0,28323.0,444.0,-25.463,-12.331,0.0,167.209,-2.401,-1013.7,-0.243,-1.53
-15.0,-112.0,28325.0,444.0,-12.71,-23.613,0.0,10.476,24.401,-976.55,0.738,-2.82
-47.0,-102.0,28327.0,444.0,13.067,-16.969,0.0,-49.171,-43.073,-984.66,1.161,-2.99
-26.0,-89.0,28331.0,444.0,-7.917,-7.984,0.0,129.409,-56.121,-1019.1,1.444,1.58
-15.0,-105.0,28331.0,444.0,-24.92,-17.9,0.0,122.891,19.192,-999.17,-1.893,-0.03
-50.0,-108.0,28335.0,444.0,3.677,-25.643,0.0,-61.672,11.304,-970.57,0.48,-3.4
-65.0,-100.0,28334.0,443.0,15.055,-15.578,0.0,6.498,-60.533,-1001.23,0.264,-1.44
-58.0,-93.0,28338.0,443.0,-15.105,-10.053,0.0,172.134,-35.858,-1021.03,0.745,-2.54
-84.0,-102.0,28336.0,443.0,-11.462,-19.707,0.0,48.883,23.434,-987.43,-0.382,-5.12
-106.0,-86.0,28343.0,443.0,23.171,-16.816,0.0,-79.842,-22.787,-969.0,3.1,-0.0
-101.0,-74.0,28341.0,443.0,8.098,-0.135,0.0,91.565,-80.111,-1006.18,0.556,-0.28
-73.0,-70.0,28344.0,443.0,-24.041,-1.821,0.0,168.876,-13.597,-1004.42,1.042,1.73
-117.0,-72.0,28347.0,443.0,-4.656,-11.697,0.0,-26.015,20.864,-971.25,0.91,-6.36
-129.0,-53.0,28348.0,443.0,14.812,-3.195,0.0,-36.091,-49.154,-979.42,2.897,0.44
-125.0,-30.0,28354.0,443.0,-16.692,6.193,0.0,168.667,-62.543,-1014.21,3.156,-2.89
-111.0,-37.0,28352.0,443.0,-31.581,-4.191,0.0,116.331,13.472,-998.09,-0.266,0.69
-140.0,-27.0,28361.0,443.0,3.602,-13.134,0.0,-81.264,13.054,-966.75,3.089,-1.52
-141.0,-17.0,28359.0,443.0,11.289,-2.485,0.0,21.83,-63.734,-998.74,0.588,0.7
-112.0,-8.0,28363.0,443.0,-22.176,2.256,0.0,188.971,-40.65,-1026.4,1.233,1.23
-152.0,-22.0,28361.0,443.0,-17.417,-9.327,0.0,35.697,25.388,-1001.96,-1.371,-7.39
-163.0,-15.0,28363.0,443.0,16.669,-10.554,0.0,-77.078,-16.696,-969.96,1.634,1.86
-169.0,-3.0,28362.0,443.0,-1.573,2.219,0.0,120.264,-73.384,-1007.66,0.786,-3.56
-133.0,-9.0,28361.0,444.0,-25.835,-2.538,0.0,153.98,-8.325,-1012.61,-0.818,3.86
-188.0,-9.0,28365.0,444.0,6.702,-14.951,0.0,-59.231,22.895,-975.33,1.386,-7.48
-192.0,4.0,28365.0,444.0,26.166,-6.068,0.0,-21.929,-57.808,-987.37,1.612,1.61
-190.0,23.0,28370.0,444.0,-6.816,4.404,0.0,183.232,-68.948,-1027.44,2.269,-4.04
-204.0,12.0,28369.0,444.0,-11.251,-7.304,0.0,82.903,16.339,-1013.46,-0.84,-3.86
-236.0,11.0,28376.0,444.0,24.447,-14.694,0.0,-86.623,7.877,-968.9,0.768,-2.0
-245.0,24.0,28374.0,444.0,18.779,0.107,0.0,64.989,-79.1,-999.71,0.671,-2.27
-196.0,22.0,28376.0,444.0,-15.453,4.184,0.0,184.68,-42.973,-1021.9,-0.979,5.42
-242.0,6.0,28376.0,444.0,1.657,-12.203,0.0,2.486,34.607,-992.39,-1.404,-7.82
-235.0,8.0,28378.0,444.0,32.511,-13.663,0.0,-62.414,-17.953,-971.4,0.581,5.18
-243.0,23.0,28380.0,444.0,8.712,1.395,0.0,146.129,-84.837,-1010.92,0.846,-4.96
-211.0,15.0,28379.0,444.0,-14.722,-5.184,0.0,138.092,-7.463,-1021.66,-1.133,3.58
-255.0,0.0,28384.0,444.0,15.788,-21.295,0.0,-71.079,34.936,-970.45,-1.299,-4.83
-239.0,4.0,28382.0,444.0,24.525,-12.144,0.0,2.694,-60.095,-965.73,-0.294,4.66
-211.0,5.0,28384.0,444.0,-12.625,-1.877,0.0,186.184,-69.522,-1008.25,-1.37,1.09
-225.0,-11.0,28382.0,444.0,-9.356,-16.083,0.0,51.638,28.519,-994.31,-1.622,-2.81
-239.0,-13.0,28385.0,446.0,27.479,-25.181,0.0,-87.482,15.04,-941.62,0.788,1.48
-240.0,2.0,28384.0,446.0,14.361,-8.919,0.0,98.74,-84.021,-974.64,1.203,-1.78
-184.0,0.0,28385.0,446.0,-18.037,-6.896,0.0,170.354,-32.807,-1008.93,-1.044,7.34
-228.0,-21.0,28386.0,446.0,4.582,-25.771,0.0,-38.72,51.665,-971.63,-1.806,-6.02
-204.0,-15.0,28387.0,446.0,27.861,-23.329,0.0,-52.936,-25.718,-947.51,1.101,8.09
-209.0,3.0,28388.0,446.0,-5.174,-6.105,0.0,167.147,-86.83,-1006.14,1.695,-4.75
-189.0,-3.0,28388.0,446.0,-24.271,-13.736,0.0,126.514,5.921,-1018.92,-0.408,1.37
-234.0,-9.0,28392.0,446.0,9.945,-29.614,0.0,-82.244,43.704,-959.28,0.873,-4.7
-219.0,7.0,28392.0,443.0,15.653,-17.011,0.0,17.295,-64.562,-971.59,1.871,4.11
-172.0,25.0,28392.0,443.0,-21.6,-2.829,0.0,185.884,-72.777,-1026.98,2.147,4.88
-191.0,27.0,28392.0,443.0,-15.973,-16.254,0.0,28.895,32.902,-1009.21,2.061,-3.26
-188.0,48.0,28393.0,443.0,16.291,-21.396,0.0,-83.157,6.119,-961.85,5.133,5.07
-211.0,94.0,28392.0,443.0,-4.306,-0.588,0.0,116.86,-96.323,-1007.04,6.75,-6.8
-163.0,102.0,28396.0,443.0,-31.68,1.269,0.0,154.761,-29.557,-1040.27,1.504,6.01
-219.0,93.0,28397.0,443.0,-4.899,-19.406,0.0,-53.253,61.738,-989.05,0.907,-7.81
-200.0,110.0,28399.0,443.0,13.693,-14.434,0.0,-23.67,-30.212,-960.19,3.241,6.22
-183.0,137.0,28398.0,444.0,-19.396,3.846,0.0,178.731,-87.192,-1021.9,3.427,-0.86
-192.0,144.0,28398.0,444.0,-26.372,-6.989,0.0,88.388,22.533,-1026.33,2.873,-3.02
-227.0,144.0,28399.0,444.0,7.983,-22.432,0.0,-77.354,47.11,-951.3,2.226,-3.0
-234.0,170.0,28397.0,444.0,4.516,-9.284,0.0,67.244,-70.456,-974.72,3.657,-2.04
-194.0,176.0,28400.0,444.0,-26.815,-0.387,0.0,183.087,-59.903,-1038.4,0.067,3.65
-233.0,162.0,28399.0,444.0,-10.836,-20.597,0.0,5.143,54.582,-1003.45,-0.135,-6.37
-218.0,170.0,28401.0,444.0,20.629,-26.036,0.0,-57.255,8.858,-945.67,2.653,6.41
-244.0,193.0,28398.0,444.0,-2.126,-4.739,0.0,149.32,-97.672,-1006.25,2.221,-8.39
-217.0,192.0,28400.0,447.0,-20.464,-4.947,0.0,142.657,-20.724,-1045.85,-0.026,2.35
-281.0,171.0,28399.0,447.0,9.876,-26.787,0.0,-59.004,59.964,-971.8,-1.394,-9.41
-268.0,188.0,28401.0,447.0,19.301,-18.758,0.0,11.385,-50.901,-947.13,2.452,3.91
-241.0,202.0,28401.0,447.0,-14.812,-0.843,0.0,185.008,-95.553,-1021.27,0.656,0.96
-261.0,200.0,28403.0,447.0,-12.444,-15.837,0.0,52.751,29.82,-1021.24,1.356,-4.22
-277.0,195.0,28407.0,447.0,21.707,-29.857,0.0,-80.632,30.789,-944.47,0.778,0.93
-297.0,220.0,28406.0,447.0,8.365,-10.481,0.0,96.91,-98.571,-979.86,2.678,-5.63
-255.0,219.0,28411.0,447.0,-18.938,-4.431,0.0,160.692,-54.163,-1044.69,-1.141,4.73
-300.0,188.0,28411.0,444.0,5.172,-27.387,0.0,-33.387,64.878,-988.31,-3.237,-6.32
-284.0,192.0,28412.0,444.0,27.681,-27.841,0.0,-39.049,-15.255,-937.35,1.126,6.11
-286.0,214.0,28409.0,444.0,-1.279,-6.285,0.0,160.615,-105.071,-1011.95,1.748,-4.04
-280.0,217.0,28410.0,444.0,-15.261,-13.391,0.0,110.692,-2.989,-1042.03,1.297,-0.89
-328.0,203.0,28409.0,444.0,15.605,-33.721,0.0,-65.933,54.792,-959.05,-0.169,-6.02
-324.0,230.0,28410.0,444.0,15.218,-22.435,0.0,46.568,-63.988,-947.75,4.07,0.86
-293.0,242.0,28411.0,444.0,-17.718,-8.099,0.0,180.085,-82.349,-1030.99,0.551,1.81
-311.0,241.0,28415.0,444.0,-5.471,-24.608,0.0,23.589,45.608,-1013.73,2.197,-2.77
-316.0,246.0,28418.0,447.0,25.254,-32.369,0.0,-58.25,18.442,-932.91,2.49,2.4
-307.0,277.0,28418.0,447.0,5.818,-10.173,0.0,131.924,-100.035,-984.02,3.786,-0.94
-280.0,278.0,28423.0,447.0,-21.669,-5.82,0.0,152.356,-33.73,-1048.87,-0.081,2.05
-311.0,252.0,28421.0,447.0,0.754,-26.582,0.0,-38.328,66.76,-979.92,-2.12,-3.45
-290.0,265.0,28423.0,447.0,10.769,-21.504,0.0,1.071,-28.129,-931.47,2.492,5.67
-269.0,283.0,28421.0,447.0,-20.714,-2.051,0.0,170.016,-95.038,-1013.82,1.417,0.38
-260.0,280.0,28424.0,447.0,-24.421,-12.526,0.0,71.983,17.371,-1033.94,0.879,0.93
-282.0,271.0,28423.0,447.0,6.632,-27.424,0.0,-68.565,40.894,-949.12,0.241,-0.56
-270.0,292.0,28426.0,443.0,-3.078,-9.663,0.0,73.795,-79.482,-963.68,2.492,1.56
-245.0,294.0,28428.0,443.0,-33.149,2.956,0.0,162.009,-67.641,-1044.52,-0.96,1.27
-258.0,278.0,28432.0,443.0,-18.375,-14.844,0.0,-6.663,50.278,-1003.05,-0.649,-0.91
-256.0,273.0,28435.0,443.0,1.054,-18.833,0.0,-33.271,3.001,-933.54,0.02,3.13
-230.0,289.0,28434.0,443.0,-23.185,0.304,0.0,148.447,-93.606,-993.37,1.024,1.99
-216.0,281.0,28439.0,443.0,-36.087,-2.022,0.0,114.183,-15.7,-1046.09,-1.255,0.65
-242.0,257.0,28437.0,443.0,-6.751,-20.869,0.0,-52.327,53.047,-974.04,-2.216,-2.02
-238.0,268.0,28441.0,443.0,-4.091,-13.137,0.0,39.182,-49.519,-938.75,1.436,1.25
-224.0,275.0,28441.0,440.0,-33.008,1.867,0.0,167.24,-83.308,-1024.42,-0.45,-1.12
-231.0,258.0,28447.0,440.0,-25.886,-13.217,0.0,34.135,32.014,-1028.03,-1.374,-0.93
-251.0,243.0,28447.0,440.0,-0.879,-24.949,0.0,-37.176,24.265,-944.54,-1.546,-1.09
-233.0,257.0,28452.0,440.0,-18.354,-8.777,0.0,124.323,-83.84,-971.81,0.901,1.17
-224.0,253.0,28453.0,440.0,-36.549,-4.956,0.0,136.12,-41.707,-1050.1,-1.27,-1.18
-249.0,227.0,28454.0,440.0,-13.658,-24.779,0.0,-23.0,53.005,-994.48,-2.528,-2.68
-258.0,233.0,28455.0,440.0,-1.739,-23.523,0.0,11.186,-22.191,-931.99,1.328,-0.59
-236.0,243.0,28451.0,440.0,-25.402,-4.941,0.0,151.036,-93.765,-1009.64,-0.336,1.19
-239.0,241.0,28455.0,442.0,-27.435,-10.88,0.0,74.366,-3.027,-1053.21,0.358,-1.36
-259.0,224.0,28452.0,442.0,0.374,-27.062,0.0,-42.888,38.286,-975.11,-1.311,-1.13
-250.0,230.0,28456.0,442.0,-3.564,-18.35,0.0,73.239,-55.223,-961.53,0.232,1.02
-251.0,234.0,28456.0,442.0,-25.022,-9.645,0.0,147.126,-59.714,-1050.32,-0.224,-3.39
-260.0,218.0,28461.0,442.0,-10.589,-25.833,0.0,7.806,37.935,-1034.99,-1.129,-0.44
-271.0,223.0,28461.0,442.0,7.102,-31.877,0.0,-12.779,4.823,-953.92,1.925,-0.16
-235.0,249.0,28462.0,442.0,-11.742,-17.152,0.0,127.976,-76.988,-987.52,3.633,4.53
-235.0,253.0,28464.0,442.0,-20.255,-18.813,0.0,95.166,-17.529,-1055.53,1.019,-1.51
-249.0,242.0,28462.0,441.0,4.904,-35.709,0.0,-32.664,46.92,-996.46,0.116,-0.02
-258.0,250.0,28466.0,441.0,8.676,-31.292,0.0,42.365,-31.522,-947.35,1.523,-1.68
-247.0,261.0,28464.0,441.0,-10.084,-19.119,0.0,132.871,-65.51,-1026.15,0.969,-0.53
-250.0,260.0,28471.0,441.0,-2.125,-27.986,0.0,25.076,19.192,-1050.67,1.298,0.19
-262.0,257.0,28469.0,441.0,18.778,-35.472,0.0,-31.977,18.159,-964.92,0.692,0.14
-232.0,281.0,28472.0,441.0,7.112,-24.014,0.0,90.842,-55.42,-957.75,3.781,4.6
-229.0,294.0,28474.0,441.0,-8.175,-19.401,0.0,115.462,-37.198,-1043.19,2.45,-1.45
-226.0,300.0,28476.0,441.0,7.279,-31.095,0.0,-2.839,27.191,-1011.68,2.864,2.21
-233.0,319.0,28478.0,440.0,15.339,-31.662,0.0,19.668,-12.254,-933.79,4.201,-0.37
-194.0,346.0,28479.0,440.0,-0.786,-20.795,0.0,114.627,-58.658,-978.82,4.458,5.74
-193.0,359.0,28485.0,440.0,0.3,-24.716,0.0,49.477,-2.261,-1033.45,3.463,0.16
-188.0,363.0,28483.0,440.0,17.666,-34.178,0.0,-17.026,20.663,-973.94,2.259,3.18
-172.0,384.0,28490.0,440.0,11.265,-28.927,0.0,78.515,-38.394,-942.41,3.853,2.29
-164.0,396.0,28488.0,440.0,-4.169,-23.525,0.0,115.858,-39.366,-1020.74,2.11,-0.57
-163.0,393.0,28494.0,440.0,3.476,-36.495,0.0,13.648,21.685,-1025.3,1.025,1.28
-163.0,395.0,28493.0,440.0,8.866,-43.53,0.0,18.954,4.064,-953.92,1.43,1.17
-119.0,410.0,28494.0,439.0,-9.405,-38.003,0.0,113.014,-43.681,-970.19,2.557,6.69
-121.0,422.0,28497.0,439.0,-12.399,-40.178,0.0,72.753,-17.479,-1037.5,2.79,-1.11
-109.0,429.0,28495.0,439.0,4.747,-48.252,0.0,-8.267,7.762,-995.03,2.479,4.34
-120.0,447.0,28499.0,439.0,3.81,-44.934,0.0,57.221,-34.731,-937.87,3.414,-2.46
-99.0,467.0,28498.0,439.0,-11.755,-36.454,0.0,106.496,-45.532,-995.99,3.397,2.52
-100.0,479.0,28505.0,439.0,-5.209,-39.256,0.0,23.653,-3.622,-1039.24,3.298,0.53
-100.0,488.0,28503.0,439.0,3.669,-40.776,0.0,10.785,-7.448,-972.35,2.481,1.41
-63.0,513.0,28507.0,439.0,-10.623,-33.742,0.0,101.094,-41.655,-941.67,4.633,5.75
-72.0,529.0,28508.0,438.0,-18.545,-29.926,0.0,86.341,-31.889,-1026.22,3.227,-2.85
-63.0,533.0,28510.0,438.0,-6.699,-34.782,0.0,6.301,3.11,-1020.36,1.9,3.19
-74.0,545.0,28510.0,438.0,-6.48,-32.668,0.0,51.691,-14.882,-935.17,2.863,-2.08
-38.0,556.0,28509.0,438.0,-18.433,-26.359,0.0,101.393,-33.049,-960.62,2.069,5.43
-50.0,573.0,28512.0,438.0,-11.384,-26.425,0.0,29.536,-10.009,-1029.91,4.197,-1.52
-44.0,576.0,28507.0,438.0,1.578,-28.515,0.0,1.78,-1.686,-986.53,1.587,2.85
-44.0,589.0,28513.0,438.0,-6.426,-27.289,0.0,78.266,-20.638,-939.85,2.904,-0.87
-57.0,598.0,28511.0,438.0,-13.57,-25.521,0.0,78.789,-23.321,-1012.44,1.97,-3.55
-64.0,598.0,28516.0,438.0,-1.362,-28.696,0.0,3.093,-3.911,-1036.3,1.005,0.18
-92.0,603.0,28516.0,438.0,5.651,-29.848,0.0,27.14,-5.56,-959.52,1.793,-4.8
