theta,phi,psi,altitude,vx,vy,vz,accelx,accely,accelz,yaw1,yaw2
-297.0,-36.0,4355.0,226.0,0.0,0.0,0.0,41.739,-17.058,-995.43,0.355,-0.1
-297.0,-36.0,4356.0,226.0,0.0,0.0,0.0,39.56,-14.819,-998.04,0.354,-0.11
-298.0,-36.0,4356.0,226.0,0.0,0.0,0.0,40.127,-15.278,-994.99,0.21,-0.25
-299.0,-37.0,4357.0,226.0,0.0,0.0,0.0,40.424,-15.475,-992.34,0.26,-0.19
-299.0,-38.0,4357.0,226.0,0.0,0.0,0.0,42.712,-17.704,-993.0,0.051,-0.26
-299.0,-38.0,4358.0,226.0,0.0,0.0,0.0,45.14,-20.095,-993.18,0.039,-0.18
-299.0,-38.0,4359.0,226.0,0.0,0.0,0.0,42.226,-19.523,-993.09,0.176,-0.03
-299.0,-39.0,4360.0,226.0,0.0,0.0,0.0,39.657,-19.29,-993.17,0.104,-0.12
-299.0,-38.0,4361.0,226.0,0.0,0.0,0.0,40.398,-19.53,-993.16,0.407,-0.06
-299.0,-36.0,4362.0,226.0,0.0,0.0,0.0,42.995,-19.57,-993.12,0.392,-0.13
-299.0,-36.0,4362.0,226.0,0.0,0.0,0.0,45.085,-19.601,-993.06,0.357,-0.14
-299.0,-35.0,4363.0,226.0,0.0,0.0,0.0,44.518,-19.587,-995.47,0.401,-0.23
-299.0,-34.0,4363.0,225.0,0.0,0.0,0.0,41.842,-21.873,-997.81,0.309,-0.19
-301.0,-32.0,4364.0,225.0,0.0,0.0,0.0,39.657,-21.619,-997.26,0.332,-0.27
-301.0,-32.0,4365.0,225.0,0.0,0.0,0.0,40.202,-18.604,-997.0,0.382,-0.18
-302.0,-31.0,4366.0,225.0,0.0,0.0,0.0,40.579,-18.815,-997.16,0.355,-0.18
-302.0,-30.0,4367.0,225.0,0.0,0.0,0.0,40.457,-19.26,-997.11,0.349,-0.22
-303.0,-29.0,4368.0,225.0,0.0,0.0,0.0,40.65,-19.172,-999.51,0.357,-0.21
-304.0,-29.0,4368.0,225.0,0.0,0.0,0.0,40.673,-19.289,-999.44,0.349,-0.2
-304.0,-28.0,4369.0,225.0,0.0,0.0,0.0,40.602,-19.237,-996.53,0.354,-0.07
-304.0,-27.0,4370.0,225.0,0.0,0.0,0.0,40.588,-19.357,-996.81,0.358,-0.11
-304.0,-26.0,4371.0,225.0,0.0,0.0,0.0,40.651,-19.509,-999.67,0.352,-0.05
-304.0,-25.0,4372.0,225.0,0.0,0.0,0.0,40.591,-19.541,-999.41,0.353,-0.13
-305.0,-25.0,4373.0,225.0,0.0,0.0,0.0,40.424,-19.464,-996.53,0.355,-0.14
-305.0,-24.0,4374.0,225.0,0.0,0.0,0.0,40.371,-19.469,-996.79,0.354,-0.09
-305.0,-23.0,4375.0,225.0,0.0,0.0,0.0,40.347,-19.476,-997.3,0.354,-0.1
-305.0,-22.0,4375.0,225.0,0.0,0.0,0.0,40.329,-19.448,-997.07,0.354,-0.11
-305.0,-22.0,4376.0,225.0,0.0,0.0,0.0,40.268,-19.341,-994.73,0.208,-0.1
-306.0,-22.0,4377.0,225.0,0.0,0.0,0.0,40.223,-19.239,-992.37,0.259,-0.11
-306.0,-22.0,4378.0,225.0,0.0,0.0,0.0,40.363,-19.346,-995.38,0.195,-0.11
-306.0,-21.0,4379.0,225.0,0.0,0.0,0.0,40.41,-19.373,-995.62,0.278,-0.1
-306.0,-21.0,4380.0,225.0,0.0,0.0,0.0,40.34,-19.297,-992.52,0.284,-0.11
-307.0,-21.0,4381.0,225.0,0.0,0.0,0.0,40.387,-17.006,-992.9,0.242,-0.11
-307.0,-22.0,4382.0,225.0,0.0,0.0,0.0,40.506,-14.846,-995.8,0.247,-0.11
-307.0,-22.0,4383.0,225.0,0.0,0.0,0.0,40.561,-17.855,-997.88,0.256,-0.11
-307.0,-20.0,4383.0,225.0,0.0,0.0,0.0,40.522,-20.416,-997.28,0.396,-0.11
-307.0,-20.0,4384.0,225.0,0.0,0.0,0.0,40.519,-17.286,-997.01,0.353,-0.11
-308.0,-20.0,4385.0,225.0,0.0,0.0,0.0,40.531,-14.702,-997.27,0.416,-0.25
-309.0,-20.0,4386.0,225.0,0.0,0.0,0.0,40.517,-15.379,-997.19,0.181,-0.2
-310.0,-20.0,4387.0,225.0,0.0,0.0,0.0,40.505,-17.938,-997.15,0.227,-0.26
-311.0,-20.0,4388.0,225.0,0.0,0.0,0.0,40.434,-19.925,-994.7,0.208,-0.18
-310.0,-20.0,4389.0,225.0,0.0,0.0,0.0,40.488,-17.022,-994.82,0.285,-0.03
-311.0,-20.0,4390.0,225.0,0.0,0.0,0.0,40.558,-14.49,-995.41,0.427,-0.12
-310.0,-20.0,4390.0,225.0,0.0,0.0,0.0,42.857,-15.231,-992.73,0.339,-0.06
-310.0,-20.0,4391.0,226.0,0.0,0.0,0.0,42.786,-15.527,-992.84,0.401,-0.13
-311.0,-20.0,4392.0,226.0,0.0,0.0,0.0,39.926,-15.473,-995.81,0.185,-0.14
-311.0,-21.0,4393.0,226.0,0.0,0.0,0.0,40.213,-15.566,-997.91,0.083,-0.09
-310.0,-22.0,4394.0,226.0,0.0,0.0,0.0,42.989,-15.549,-997.34,0.116,-0.1
-310.0,-24.0,4394.0,226.0,0.0,0.0,0.0,45.04,-17.917,-996.91,-0.018,-0.11
-309.0,-23.0,4395.0,226.0,0.0,0.0,0.0,44.494,-20.235,-997.08,0.253,-0.1
-309.0,-23.0,4396.0,226.0,0.0,0.0,0.0,44.173,-19.733,-997.04,0.255,-0.11
-309.0,-23.0,4396.0,226.0,0.0,0.0,0.0,44.399,-19.516,-997.04,0.165,-0.11
-308.0,-23.0,4397.0,226.0,0.0,0.0,0.0,44.353,-22.068,-996.99,0.218,-0.1
-308.0,-23.0,4398.0,226.0,0.0,0.0,0.0,44.392,-21.964,-997.0,0.032,-0.11
-307.0,-23.0,4399.0,226.0,0.0,0.0,0.0,44.342,-18.963,-994.66,0.154,-0.11
-307.0,-23.0,4400.0,226.0,0.0,0.0,0.0,44.289,-19.07,-992.32,0.355,-0.11
-307.0,-22.0,4401.0,226.0,0.0,0.0,0.0,44.312,-19.516,-992.9,0.383,-0.11
-307.0,-21.0,4402.0,226.0,0.0,0.0,0.0,44.32,-19.263,-993.21,0.402,-0.25
-307.0,-20.0,4403.0,226.0,0.0,0.0,0.0,44.314,-19.245,-993.04,0.247,-0.2
-307.0,-20.0,4403.0,226.0,0.0,0.0,0.0,44.317,-19.147,-993.09,0.193,-0.26
-307.0,-21.0,4404.0,224.0,0.0,0.0,0.0,44.253,-19.02,-990.69,0.181,-0.18
-306.0,-20.0,4405.0,224.0,0.0,0.0,0.0,46.595,-16.563,-988.37,0.303,-0.03
-305.0,-20.0,4406.0,224.0,0.0,0.0,0.0,48.964,-16.681,-988.9,0.284,-0.12
-305.0,-20.0,4406.0,224.0,0.0,0.0,0.0,46.009,-19.61,-989.21,0.241,-0.2
-305.0,-20.0,4407.0,224.0,0.0,0.0,0.0,43.358,-19.378,-989.1,0.245,-0.22
-306.0,-21.0,4407.0,224.0,0.0,0.0,0.0,44.166,-16.731,-991.57,0.103,-0.29
-305.0,-21.0,4409.0,224.0,0.0,0.0,0.0,44.477,-14.788,-993.93,0.302,-0.16
-305.0,-22.0,4409.0,224.0,0.0,0.0,0.0,44.279,-15.328,-993.35,0.197,-0.02
-304.0,-22.0,4410.0,226.0,0.0,0.0,0.0,44.298,-15.669,-993.03,0.337,-0.13
-304.0,-21.0,4411.0,226.0,0.0,0.0,0.0,42.021,-15.546,-995.64,0.4,-0.05
-304.0,-21.0,4412.0,226.0,0.0,0.0,0.0,39.781,-15.647,-997.97,0.305,-0.13
-306.0,-22.0,4413.0,226.0,0.0,0.0,0.0,40.3,-15.573,-997.38,0.272,-0.28
-307.0,-22.0,4413.0,226.0,0.0,0.0,0.0,38.192,-15.484,-997.1,0.244,-0.18
-308.0,-23.0,4414.0,226.0,0.0,0.0,0.0,35.695,-15.393,-997.33,0.159,-0.25
-310.0,-23.0,4414.0,226.0,0.0,0.0,0.0,36.335,-15.364,-997.27,0.294,-0.19
-311.0,-22.0,4415.0,226.0,0.0,0.0,0.0,36.677,-15.376,-997.27,0.432,-0.17
-312.0,-22.0,4416.0,225.0,0.0,0.0,0.0,36.647,-17.841,-999.6,0.329,-0.22
-313.0,-21.0,4417.0,225.0,0.0,0.0,0.0,36.709,-20.176,-999.51,0.41,-0.21
-315.0,-21.0,4418.0,225.0,0.0,0.0,0.0,36.635,-19.512,-996.6,0.182,-0.2
-316.0,-21.0,4419.0,225.0,0.0,0.0,0.0,36.672,-19.216,-996.88,0.221,-0.2
-318.0,-21.0,4420.0,225.0,0.0,0.0,0.0,36.737,-19.474,-999.75,0.068,-0.34
-320.0,-21.0,4421.0,225.0,0.0,0.0,0.0,36.711,-19.425,-999.48,0.19,-0.29
-322.0,-21.0,4422.0,225.0,0.0,0.0,0.0,36.602,-19.367,-996.61,0.262,-0.36
-323.0,-21.0,4422.0,225.0,0.0,0.0,0.0,36.603,-19.421,-996.86,0.262,-0.14
-323.0,-19.0,4423.0,225.0,0.0,0.0,0.0,39.008,-19.537,-997.33,0.476,-0.04
-322.0,-19.0,4424.0,225.0,0.0,0.0,0.0,41.332,-19.576,-997.05,0.311,-0.06
-322.0,-18.0,4425.0,225.0,0.0,0.0,0.0,40.73,-19.546,-997.12,0.375,-0.08
-323.0,-17.0,4426.0,225.0,0.0,0.0,0.0,40.366,-19.474,-997.1,0.346,-0.16
-323.0,-16.0,4427.0,225.0,0.0,0.0,0.0,40.435,-21.723,-997.08,0.326,-0.13
-323.0,-15.0,4427.0,225.0,0.0,0.0,0.0,40.296,-23.924,-997.02,0.363,-0.08
-324.0,-13.0,4428.0,225.0,0.0,0.0,0.0,37.965,-23.351,-999.46,0.363,-0.1
-324.0,-12.0,4428.0,225.0,0.0,0.0,0.0,38.072,-23.114,-1001.81,0.343,-0.11
-324.0,-11.0,4429.0,225.0,0.0,0.0,0.0,40.997,-23.3,-1001.16,0.207,-0.11
-325.0,-10.0,4430.0,225.0,0.0,0.0,0.0,40.67,-23.196,-998.47,0.257,-0.25
-326.0,-10.0,4431.0,225.0,0.0,0.0,0.0,40.191,-20.838,-996.36,0.191,-0.2
-327.0,-10.0,4432.0,225.0,0.0,0.0,0.0,40.489,-20.972,-996.9,0.278,-0.25
-327.0,-8.0,4433.0,225.0,0.0,0.0,0.0,40.51,-21.605,-997.21,0.427,-0.18
-327.0,-7.0,4433.0,225.0,0.0,0.0,0.0,40.614,-19.094,-997.07,0.333,-0.03
-327.0,-7.0,4433.0,225.0,0.0,0.0,0.0,42.929,-19.169,-994.69,0.259,-0.12
-326.0,-7.0,4434.0,225.0,0.0,0.0,0.0,45.2,-19.602,-992.29,0.235,-0.05
-326.0,-7.0,4434.0,224.0,0.0,0.0,0.0,42.311,-19.41,-995.34,0.159,-0.13
-326.0,-7.0,4435.0,224.0,0.0,0.0,0.0,39.698,-19.497,-998.02,0.292,-0.14
-326.0,-6.0,4436.0,224.0,0.0,0.0,0.0,40.352,-19.402,-997.25,0.436,-0.09
-327.0,-5.0,4437.0,224.0,0.0,0.0,0.0,40.536,-19.42,-996.99,0.329,-0.1
-327.0,-4.0,4438.0,224.0,0.0,0.0,0.0,40.341,-19.408,-997.15,0.406,-0.11
-327.0,-4.0,4438.0,224.0,0.0,0.0,0.0,40.355,-19.386,-997.12,0.181,-0.1
-327.0,-4.0,4439.0,224.0,0.0,0.0,0.0,42.743,-19.386,-997.07,0.221,-0.11
-326.0,-4.0,4440.0,224.0,0.0,0.0,0.0,45.104,-19.378,-997.01,0.212,-0.11
-326.0,-4.0,4441.0,224.0,0.0,0.0,0.0,44.535,-19.375,-997.04,0.14,-0.1
-325.0,-4.0,4442.0,224.0,0.0,0.0,0.0,44.27,-19.409,-997.04,0.325,-0.1
-325.0,-4.0,4443.0,224.0,0.0,0.0,0.0,44.469,-19.469,-997.04,0.178,-0.11
-324.0,-4.0,4444.0,224.0,0.0,0.0,0.0,44.44,-19.529,-997.04,0.179,-0.1
-324.0,-4.0,4445.0,224.0,0.0,0.0,0.0,44.382,-19.485,-994.65,0.308,-0.11
-323.0,-5.0,4446.0,224.0,0.0,0.0,0.0,44.287,-19.417,-992.31,0.002,-0.1
-323.0,-4.0,4446.0,224.0,0.0,0.0,0.0,44.394,-19.521,-995.29,0.248,-0.1
-322.0,-4.0,4447.0,224.0,0.0,0.0,0.0,44.47,-19.6,-997.94,0.254,-0.1
-322.0,-5.0,4448.0,225.0,0.0,0.0,0.0,44.367,-17.121,-994.83,0.076,-0.1
-321.0,-5.0,4449.0,225.0,0.0,0.0,0.0,44.369,-14.8,-994.67,0.402,-0.1
-321.0,-5.0,4450.0,225.0,0.0,0.0,0.0,44.447,-17.811,-997.7,0.16,-0.1
-320.0,-5.0,4451.0,225.0,0.0,0.0,0.0,44.432,-18.017,-997.38,0.287,-0.1
-320.0,-5.0,4452.0,225.0,0.0,0.0,0.0,44.355,-14.838,-994.57,0.426,-0.1
-320.0,-5.0,4453.0,225.0,0.0,0.0,0.0,41.988,-15.105,-994.86,0.307,-0.24
-321.0,-5.0,4454.0,225.0,0.0,0.0,0.0,42.139,-15.628,-997.74,0.41,-0.2
-321.0,-5.0,4454.0,225.0,0.0,0.0,0.0,42.676,-15.388,-997.48,0.345,-0.26
-323.0,-5.0,4455.0,225.0,0.0,0.0,0.0,40.084,-15.345,-997.01,0.308,-0.32
-324.0,-5.0,4456.0,225.0,0.0,0.0,0.0,40.244,-15.306,-997.25,0.22,-0.26
-326.0,-6.0,4457.0,225.0,0.0,0.0,0.0,40.886,-15.432,-999.57,0.266,-0.51
-327.0,-6.0,4457.0,225.0,0.0,0.0,0.0,40.777,-17.875,-1001.88,0.184,-0.37
-328.0,-5.0,4457.0,225.0,0.0,0.0,0.0,40.862,-20.213,-1001.22,0.278,-0.28
-328.0,-4.0,4458.0,225.0,0.0,0.0,0.0,40.855,-19.717,-1000.94,0.423,-0.15
-328.0,-4.0,4458.0,225.0,0.0,0.0,0.0,40.916,-19.499,-1001.12,0.33,0.01
-328.0,-3.0,4459.0,225.0,0.0,0.0,0.0,40.87,-19.716,-1001.06,0.406,-0.08
-328.0,-2.0,4460.0,225.0,0.0,0.0,0.0,40.691,-19.59,-998.69,0.329,-0.11
-329.0,-1.0,4462.0,225.0,0.0,0.0,0.0,45.02,-19.454,-996.85,0.367,-0.21
-329.0,0.0,4462.0,225.0,0.0,0.0,0.0,41.952,-19.389,-997.21,0.359,-0.24
-329.0,0.0,4462.0,225.0,0.0,0.0,0.0,41.655,-19.334,-997.04,0.344,-0.17
-328.0,0.0,4462.0,225.0,0.0,0.0,0.0,44.769,-19.342,-997.03,0.352,-0.04
-328.0,1.0,4463.0,225.0,0.0,0.0,0.0,44.532,-19.343,-997.03,0.346,-0.12
-327.0,2.0,4464.0,225.0,0.0,0.0,0.0,44.164,-19.356,-997.05,0.347,-0.05
-327.0,2.0,4465.0,225.0,0.0,0.0,0.0,44.44,-17.039,-997.08,0.353,-0.12
-327.0,2.0,4466.0,225.0,0.0,0.0,0.0,44.445,-14.776,-997.13,0.349,-0.27
-328.0,2.0,4467.0,225.0,0.0,0.0,0.0,42.095,-15.36,-997.17,0.348,-0.18
-329.0,1.0,4468.0,225.0,0.0,0.0,0.0,39.731,-15.658,-997.2,0.205,-0.25
-329.0,1.0,4469.0,225.0,0.0,0.0,0.0,40.347,-15.511,-997.19,0.254,-0.18
-329.0,0.0,4469.0,225.0,0.0,0.0,0.0,40.676,-15.57,-997.19,0.191,-0.17
-330.0,0.0,4470.0,225.0,0.0,0.0,0.0,40.517,-17.926,-997.15,0.274,-0.21
-331.0,2.0,4471.0,225.0,0.0,0.0,0.0,40.498,-20.181,-994.71,0.424,-0.21
-331.0,2.0,4472.0,225.0,0.0,0.0,0.0,40.421,-19.532,-992.39,0.333,-0.19
-332.0,2.0,4473.0,225.0,0.0,0.0,0.0,40.454,-19.261,-992.98,0.257,-0.2
-333.0,2.0,4473.0,225.0,0.0,0.0,0.0,40.513,-19.502,-995.67,0.087,-0.2
-333.0,1.0,4474.0,225.0,0.0,0.0,0.0,40.566,-19.486,-997.84,0.062,-0.2
-334.0,1.0,4474.0,225.0,0.0,0.0,0.0,40.529,-19.443,-997.29,0.131,-0.2
-334.0,2.0,4475.0,225.0,0.0,0.0,0.0,40.495,-19.42,-996.98,0.358,-0.06
-334.0,2.0,4476.0,225.0,0.0,0.0,0.0,40.405,-19.397,-994.78,0.403,-0.11
-334.0,3.0,4477.0,225.0,0.0,0.0,0.0,40.321,-17.006,-992.43,0.387,-0.19
-335.0,3.0,4478.0,226.0,0.0,0.0,0.0,40.328,-14.735,-993.08,0.376,-0.22
-337.0,3.0,4479.0,226.0,0.0,0.0,0.0,40.31,-15.276,-993.36,0.292,-0.43
-338.0,3.0,4480.0,226.0,0.0,0.0,0.0,40.296,-15.479,-993.19,0.335,-0.26
-338.0,3.0,4480.0,226.0,0.0,0.0,0.0,40.248,-15.133,-990.85,0.374,-0.18
-339.0,3.0,4481.0,226.0,0.0,0.0,0.0,40.233,-15.027,-988.5,0.352,-0.19
-338.0,3.0,4481.0,226.0,0.0,0.0,0.0,40.39,-17.447,-991.45,0.346,0.01
-339.0,4.0,4482.0,226.0,0.0,0.0,0.0,42.882,-19.886,-993.99,0.347,-0.28
-339.0,5.0,4482.0,226.0,0.0,0.0,0.0,42.801,-19.301,-993.25,0.343,-0.18
-340.0,5.0,4482.0,225.0,0.0,0.0,0.0,42.293,-19.126,-995.39,0.351,-0.26
-340.0,6.0,4483.0,225.0,0.0,0.0,0.0,44.836,-19.378,-995.44,0.352,-0.2
-339.0,7.0,4483.0,225.0,0.0,0.0,0.0,44.66,-19.357,-994.89,0.347,-0.02
-338.0,7.0,4484.0,225.0,0.0,0.0,0.0,44.208,-19.493,-997.51,0.347,-0.11
-337.0,7.0,4485.0,225.0,0.0,0.0,0.0,44.418,-19.493,-997.38,0.204,-0.06
-337.0,8.0,4486.0,225.0,0.0,0.0,0.0,44.239,-19.408,-994.49,0.253,-0.12
-337.0,7.0,4487.0,225.0,0.0,0.0,0.0,44.19,-19.334,-992.37,0.19,-0.13
-336.0,8.0,4488.0,225.0,0.0,0.0,0.0,46.527,-19.384,-992.84,0.272,-0.09
-336.0,9.0,4489.0,225.0,0.0,0.0,0.0,46.491,-19.424,-993.19,0.423,-0.23
-336.0,9.0,4490.0,225.0,0.0,0.0,0.0,43.594,-19.411,-993.04,0.332,-0.2
-337.0,10.0,4490.0,225.0,0.0,0.0,0.0,43.9,-19.419,-993.09,0.401,-0.4
-337.0,10.0,4491.0,225.0,0.0,0.0,0.0,44.431,-19.395,-993.08,0.181,-0.27
-337.0,10.0,4491.0,225.0,0.0,0.0,0.0,44.372,-19.424,-995.48,0.22,-0.19
-337.0,10.0,4492.0,225.0,0.0,0.0,0.0,44.586,-19.452,-997.81,0.205,-0.33
-337.0,10.0,4493.0,225.0,0.0,0.0,0.0,44.61,-19.401,-997.22,0.282,-0.07
-338.0,11.0,4494.0,225.0,0.0,0.0,0.0,44.666,-19.399,-996.91,0.418,-0.43
-338.0,12.0,4495.0,225.0,0.0,0.0,0.0,44.644,-19.437,-997.08,0.334,-0.25
-338.0,12.0,4496.0,225.0,0.0,0.0,0.0,44.599,-19.464,-997.04,0.252,-0.19
-338.0,12.0,4496.0,225.0,0.0,0.0,0.0,44.473,-19.383,-994.66,0.229,-0.21
-337.0,12.0,4497.0,225.0,0.0,0.0,0.0,44.335,-19.283,-992.3,0.16,0.02
-336.0,12.0,4498.0,225.0,0.0,0.0,0.0,44.3,-19.293,-992.91,0.288,-0.13
-336.0,13.0,4499.0,225.0,0.0,0.0,0.0,44.244,-19.309,-993.21,0.431,-0.09
-335.0,13.0,4500.0,225.0,0.0,0.0,0.0,44.242,-19.409,-995.43,0.181,-0.11
-335.0,14.0,4501.0,225.0,0.0,0.0,0.0,44.172,-19.423,-995.42,0.307,-0.13
-335.0,14.0,4502.0,225.0,0.0,0.0,0.0,44.018,-21.659,-992.44,0.164,-0.23
-336.0,15.0,4503.0,225.0,0.0,0.0,0.0,44.01,-23.951,-992.69,0.237,-0.32
-338.0,18.0,4504.0,225.0,0.0,0.0,0.0,39.451,-23.031,-993.05,0.341,-0.33
-338.0,19.0,4505.0,225.0,0.0,0.0,0.0,40.25,-20.945,-995.53,0.393,-0.1
-338.0,19.0,4506.0,225.0,0.0,0.0,0.0,40.774,-18.677,-997.88,0.328,-0.05
-338.0,19.0,4506.0,225.0,0.0,0.0,0.0,40.68,-19.205,-997.31,0.166,-0.07
-338.0,19.0,4507.0,225.0,0.0,0.0,0.0,43.03,-19.372,-994.55,0.267,-0.07
-337.0,18.0,4508.0,225.0,0.0,0.0,0.0,45.304,-16.884,-994.78,0.057,-0.16
-337.0,17.0,4509.0,225.0,0.0,0.0,0.0,44.728,-14.75,-997.72,0.171,-0.12
-336.0,16.0,4509.0,225.0,0.0,0.0,0.0,44.269,-15.361,-997.44,0.12,-0.08
-336.0,15.0,4511.0,225.0,0.0,0.0,0.0,44.322,-15.754,-996.93,0.157,-0.1
-335.0,14.0,4511.0,225.0,0.0,0.0,0.0,44.236,-15.671,-997.17,0.169,-0.11
-334.0,13.0,4512.0,225.0,0.0,0.0,0.0,46.526,-15.719,-994.67,0.142,-0.1
-333.0,13.0,4513.0,225.0,0.0,0.0,0.0,48.779,-15.682,-992.32,0.284,-0.11
-332.0,12.0,4514.0,225.0,0.0,0.0,0.0,48.275,-15.7,-992.89,0.248,-0.1
-331.0,13.0,4515.0,226.0,0.0,0.0,0.0,48.036,-15.644,-993.22,0.452,-0.1
-330.0,13.0,4516.0,226.0,0.0,0.0,0.0,48.238,-17.903,-993.0,0.32,-0.1
-329.0,14.0,4517.0,226.0,0.0,0.0,0.0,48.23,-20.09,-992.99,0.378,-0.1
-327.0,15.0,4517.0,226.0,0.0,0.0,0.0,48.27,-19.388,-993.0,0.333,-0.1
-326.0,15.0,4518.0,226.0,0.0,0.0,0.0,48.252,-21.331,-992.98,0.323,-0.1
-325.0,17.0,4519.0,226.0,0.0,0.0,0.0,48.25,-23.725,-992.91,0.358,-0.1
-325.0,18.0,4520.0,226.0,0.0,0.0,0.0,48.24,-23.088,-992.93,0.357,-0.24
-324.0,19.0,4521.0,226.0,0.0,0.0,0.0,45.943,-20.548,-995.42,0.341,-0.19
-325.0,19.0,4522.0,225.0,0.0,0.0,0.0,43.71,-18.531,-997.84,0.347,-0.26
-325.0,20.0,4523.0,225.0,0.0,0.0,0.0,44.283,-19.141,-997.23,0.346,-0.18
-324.0,21.0,4524.0,225.0,0.0,0.0,0.0,44.604,-19.515,-996.91,0.345,-0.03
-323.0,21.0,4525.0,225.0,0.0,0.0,0.0,44.474,-19.393,-997.08,0.349,-0.12
-323.0,21.0,4525.0,225.0,0.0,0.0,0.0,44.543,-17.15,-997.08,0.347,-0.05
-323.0,21.0,4526.0,225.0,0.0,0.0,0.0,42.153,-14.843,-997.18,0.345,-0.12
-324.0,21.0,4527.0,225.0,0.0,0.0,0.0,39.796,-15.416,-997.2,0.347,-0.27
-324.0,21.0,4528.0,225.0,0.0,0.0,0.0,40.307,-15.703,-997.2,0.201,-0.18
-325.0,21.0,4529.0,225.0,0.0,0.0,0.0,40.561,-17.871,-997.14,0.251,-0.25
-326.0,20.0,4530.0,225.0,0.0,0.0,0.0,42.672,-20.134,-994.66,0.188,-0.32
-325.0,21.0,4531.0,225.0,0.0,0.0,0.0,44.991,-19.488,-992.3,0.27,-0.12
-326.0,22.0,4532.0,225.0,0.0,0.0,0.0,44.474,-19.247,-992.9,0.421,-0.27
-327.0,22.0,4532.0,225.0,0.0,0.0,0.0,41.882,-19.416,-993.26,0.33,-0.27
-327.0,22.0,4533.0,225.0,0.0,0.0,0.0,42.129,-19.383,-993.08,0.254,-0.14
-327.0,22.0,4534.0,225.0,0.0,0.0,0.0,45.016,-19.406,-993.07,0.229,-0.3
-326.0,22.0,4535.0,225.0,0.0,0.0,0.0,44.744,-19.341,-993.07,0.154,-0.11
-326.0,22.0,4536.0,225.0,0.0,0.0,0.0,44.223,-19.315,-993.1,0.286,-0.04
-325.0,23.0,4537.0,225.0,0.0,0.0,0.0,44.486,-19.386,-995.47,0.431,-0.15
-325.0,24.0,4538.0,225.0,0.0,0.0,0.0,44.447,-19.473,-997.81,0.324,-0.03
-324.0,25.0,4539.0,225.0,0.0,0.0,0.0,44.38,-19.464,-997.22,0.401,-0.12
-324.0,25.0,4540.0,225.0,0.0,0.0,0.0,44.273,-19.44,-996.91,0.176,-0.14
-323.0,25.0,4540.0,225.0,0.0,0.0,0.0,44.322,-19.503,-999.47,0.216,-0.08
-323.0,24.0,4541.0,225.0,0.0,0.0,0.0,42.004,-19.537,-1001.81,0.062,-0.09
-323.0,24.0,4542.0,225.0,0.0,0.0,0.0,39.669,-19.493,-1001.27,0.185,-0.11
-324.0,24.0,4543.0,225.0,0.0,0.0,0.0,40.206,-19.438,-998.55,0.256,-0.1
-324.0,24.0,4544.0,225.0,0.0,0.0,0.0,40.487,-19.432,-996.39,0.256,-0.24
-325.0,25.0,4545.0,225.0,0.0,0.0,0.0,40.388,-19.52,-996.93,0.47,-0.2
-326.0,26.0,4546.0,225.0,0.0,0.0,0.0,40.482,-21.915,-997.2,0.306,-0.25
-326.0,28.0,4547.0,225.0,0.0,0.0,0.0,40.509,-24.185,-996.97,0.369,-0.17
-327.0,29.0,4547.0,225.0,0.0,0.0,0.0,40.587,-23.541,-997.04,0.34,-0.17
-328.0,30.0,4548.0,225.0,0.0,0.0,0.0,40.617,-23.144,-997.03,0.32,-0.21
-328.0,30.0,4548.0,225.0,0.0,0.0,0.0,40.559,-23.133,-994.65,0.212,-0.2
-329.0,30.0,4549.0,225.0,0.0,0.0,0.0,40.556,-23.031,-994.7,0.117,-0.34
-330.0,30.0,4550.0,225.0,0.0,0.0,0.0,40.621,-23.136,-997.62,0.083,-0.15
-331.0,30.0,4551.0,225.0,0.0,0.0,0.0,40.581,-23.154,-997.35,0.112,-0.25
-331.0,32.0,4552.0,225.0,0.0,0.0,0.0,40.538,-23.249,-996.87,0.345,-0.11
-331.0,33.0,4553.0,225.0,0.0,0.0,0.0,40.521,-23.378,-997.08,0.403,-0.05
-331.0,34.0,4553.0,225.0,0.0,0.0,0.0,40.505,-21.128,-997.07,0.384,-0.15
-331.0,35.0,4554.0,225.0,0.0,0.0,0.0,40.465,-21.221,-997.1,0.377,-0.04
-331.0,35.0,4555.0,225.0,0.0,0.0,0.0,40.41,-21.697,-997.06,0.144,-0.11
-331.0,35.0,4556.0,225.0,0.0,0.0,0.0,40.373,-19.024,-997.13,0.234,-0.13
-331.0,34.0,4557.0,225.0,0.0,0.0,0.0,40.332,-19.024,-997.12,0.068,-0.08
-332.0,34.0,4558.0,225.0,0.0,0.0,0.0,40.233,-19.379,-994.72,0.179,-0.24
-333.0,34.0,4559.0,225.0,0.0,0.0,0.0,40.169,-19.07,-992.39,0.259,-0.2
-334.0,34.0,4560.0,225.0,0.0,0.0,0.0,40.229,-19.213,-992.98,0.252,-0.25
-334.0,35.0,4560.0,225.0,0.0,0.0,0.0,40.304,-19.258,-993.28,0.468,-0.18
-334.0,36.0,4561.0,225.0,0.0,0.0,0.0,40.378,-19.346,-993.12,0.309,-0.03
-334.0,36.0,4562.0,225.0,0.0,0.0,0.0,40.452,-19.35,-993.16,0.223,-0.11
-334.0,35.0,4563.0,225.0,0.0,0.0,0.0,40.573,-19.397,-995.54,0.098,-0.05
-334.0,34.0,4564.0,225.0,0.0,0.0,0.0,40.645,-19.434,-997.89,0.067,-0.12
-335.0,34.0,4565.0,225.0,0.0,0.0,0.0,40.498,-19.282,-994.9,0.122,-0.13
-335.0,34.0,4566.0,225.0,0.0,0.0,0.0,40.342,-19.196,-992.26,0.356,-0.09
-335.0,35.0,4567.0,225.0,0.0,0.0,0.0,40.383,-19.363,-995.41,0.396,-0.09
-335.0,36.0,4567.0,225.0,0.0,0.0,0.0,40.427,-19.513,-998.01,0.381,-0.11
-335.0,37.0,4568.0,225.0,0.0,0.0,0.0,40.385,-19.505,-997.26,0.376,-0.1
-335.0,37.0,4569.0,225.0,0.0,0.0,0.0,40.379,-19.456,-996.98,0.288,-0.1
-335.0,37.0,4570.0,225.0,0.0,0.0,0.0,42.778,-19.405,-997.11,0.185,-0.24
-336.0,37.0,4571.0,225.0,0.0,0.0,0.0,45.048,-19.255,-994.64,0.276,-0.33
-337.0,37.0,4572.0,225.0,0.0,0.0,0.0,44.426,-19.114,-992.31,0.189,-0.35
-337.0,37.0,4573.0,225.0,0.0,0.0,0.0,44.28,-19.22,-995.29,0.266,-0.33
-337.0,38.0,4574.0,225.0,0.0,0.0,0.0,44.537,-19.278,-995.55,0.419,-0.1
-336.0,38.0,4575.0,225.0,0.0,0.0,0.0,44.552,-19.321,-994.84,0.323,-0.04
-335.0,39.0,4575.0,225.0,0.0,0.0,0.0,44.701,-19.478,-997.5,0.399,-0.07
-335.0,39.0,4576.0,225.0,0.0,0.0,0.0,44.68,-17.155,-997.43,0.326,-0.21
-335.0,38.0,4577.0,226.0,0.0,0.0,0.0,44.609,-14.834,-996.97,0.165,-0.25
-336.0,38.0,4578.0,226.0,0.0,0.0,0.0,42.104,-17.712,-997.17,0.265,-0.27
-337.0,37.0,4579.0,226.0,0.0,0.0,0.0,39.737,-20.341,-999.48,0.051,-0.29
-337.0,37.0,4580.0,226.0,0.0,0.0,0.0,40.355,-19.687,-1001.86,0.168,-0.12
-338.0,37.0,4581.0,226.0,0.0,0.0,0.0,40.562,-19.358,-998.85,0.264,-0.27
-339.0,37.0,4582.0,226.0,0.0,0.0,0.0,40.424,-19.567,-998.61,0.249,-0.26
-339.0,39.0,4582.0,226.0,0.0,0.0,0.0,42.997,-19.74,-1001.66,0.47,-0.15
-339.0,39.0,4583.0,226.0,0.0,0.0,0.0,45.344,-19.777,-1001.28,0.31,-0.3
-339.0,40.0,4584.0,225.0,0.0,0.0,0.0,42.328,-21.955,-998.44,0.363,-0.1
-339.0,41.0,4585.0,225.0,0.0,0.0,0.0,39.698,-24.178,-998.69,0.337,-0.04
-340.0,42.0,4586.0,225.0,0.0,0.0,0.0,40.467,-23.52,-999.19,0.321,-0.29
-340.0,43.0,4587.0,225.0,0.0,0.0,0.0,40.707,-20.774,-999.03,0.355,-0.12
-342.0,44.0,4588.0,225.0,0.0,0.0,0.0,40.588,-18.676,-1001.49,0.356,-0.41
-343.0,44.0,4589.0,225.0,0.0,0.0,0.0,40.57,-19.185,-1001.43,0.336,-0.3
-343.0,44.0,4590.0,225.0,0.0,0.0,0.0,40.545,-19.489,-1000.89,0.199,-0.16
-344.0,43.0,4590.0,225.0,0.0,0.0,0.0,40.611,-17.008,-1001.18,0.104,-0.18
-343.0,41.0,4591.0,225.0,0.0,0.0,0.0,40.654,-14.831,-1001.14,-0.057,0.01
-343.0,39.0,4592.0,225.0,0.0,0.0,0.0,40.697,-15.488,-1001.17,0.017,-0.13
-343.0,38.0,4593.0,225.0,0.0,0.0,0.0,40.698,-15.92,-1001.13,0.185,-0.08
-343.0,38.0,4594.0,225.0,0.0,0.0,0.0,40.653,-15.874,-1001.15,0.325,-0.11
-344.0,39.0,4595.0,225.0,0.0,0.0,0.0,40.509,-15.938,-998.76,0.456,-0.12
-344.0,39.0,4595.0,225.0,0.0,0.0,0.0,40.446,-15.964,-998.81,0.358,-0.09
-344.0,39.0,4596.0,225.0,0.0,0.0,0.0,40.487,-18.359,-1001.69,0.196,-0.09
-344.0,39.0,4596.0,225.0,0.0,0.0,0.0,40.453,-20.471,-1001.36,0.21,-0.25
-345.0,38.0,4597.0,225.0,0.0,0.0,0.0,40.458,-19.694,-1000.9,0.177,-0.19
-346.0,39.0,4598.0,225.0,0.0,0.0,0.0,40.51,-19.258,-1001.12,0.288,-0.25
-346.0,39.0,4599.0,225.0,0.0,0.0,0.0,40.573,-19.349,-1001.06,0.281,-0.17
-346.0,39.0,4600.0,225.0,0.0,0.0,0.0,38.28,-19.29,-1001.13,0.226,-0.03
-347.0,39.0,4601.0,225.0,0.0,0.0,0.0,36.11,-19.415,-1003.53,0.234,-0.12
-348.0,39.0,4602.0,225.0,0.0,0.0,0.0,36.812,-19.558,-1005.88,0.244,-0.05
-348.0,39.0,4603.0,225.0,0.0,0.0,0.0,37.089,-19.625,-1005.28,0.242,-0.12
-349.0,39.0,4603.0,225.0,0.0,0.0,0.0,36.859,-19.671,-1004.97,0.25,-0.13
-350.0,39.0,4604.0,225.0,0.0,0.0,0.0,36.837,-19.718,-1005.14,0.246,-0.08
-350.0,39.0,4605.0,225.0,0.0,0.0,0.0,36.682,-19.654,-1002.71,0.094,-0.09
-351.0,39.0,4606.0,225.0,0.0,0.0,0.0,36.58,-19.57,-1000.38,0.293,-0.11
-352.0,38.0,4607.0,225.0,0.0,0.0,0.0,36.567,-19.585,-1000.95,0.036,-0.1
-352.0,37.0,4608.0,225.0,0.0,0.0,0.0,36.584,-19.592,-1001.28,0.088,-0.1
-353.0,36.0,4609.0,225.0,0.0,0.0,0.0,38.976,-19.61,-1001.06,-0.003,-0.1
-353.0,35.0,4610.0,225.0,0.0,0.0,0.0,41.323,-19.649,-1001.06,-0.034,-0.1
-353.0,35.0,4611.0,225.0,0.0,0.0,0.0,40.783,-17.331,-1001.11,0.248,-0.1
-353.0,34.0,4611.0,225.0,0.0,0.0,0.0,40.52,-15.081,-1001.17,0.168,-0.1
-352.0,34.0,4612.0,225.0,0.0,0.0,0.0,43.078,-15.714,-1001.1,0.325,-0.1
-351.0,33.0,4613.0,225.0,0.0,0.0,0.0,45.363,-16.027,-1001.05,0.217,-0.1
-351.0,33.0,4614.0,225.0,0.0,0.0,0.0,42.338,-15.684,-998.73,0.27,-0.1
-351.0,33.0,4615.0,225.0,0.0,0.0,0.0,39.613,-15.515,-996.44,0.372,-0.1
-351.0,32.0,4616.0,225.0,0.0,0.0,0.0,40.394,-15.419,-997.01,0.324,-0.1
-351.0,33.0,4617.0,225.0,0.0,0.0,0.0,40.654,-15.349,-997.32,0.412,-0.1
-352.0,32.0,4618.0,225.0,0.0,0.0,0.0,40.465,-17.596,-997.1,0.179,-0.1
-352.0,31.0,4618.0,225.0,0.0,0.0,0.0,40.397,-19.763,-994.71,0.067,-0.1
-352.0,31.0,4619.0,225.0,0.0,0.0,0.0,40.323,-19.107,-992.38,0.102,-0.1
-352.0,30.0,4620.0,225.0,0.0,0.0,0.0,40.438,-18.975,-995.38,0.115,-0.1
-352.0,31.0,4621.0,225.0,0.0,0.0,0.0,40.507,-19.361,-998.01,0.339,-0.1
-352.0,32.0,4622.0,225.0,0.0,0.0,0.0,40.491,-19.442,-997.25,0.405,-0.1
-351.0,32.0,4623.0,225.0,0.0,0.0,0.0,42.782,-19.504,-994.56,0.374,-0.1
-351.0,33.0,4624.0,225.0,0.0,0.0,0.0,45.108,-19.57,-994.72,0.37,-0.24
-352.0,33.0,4625.0,225.0,0.0,0.0,0.0,42.249,-19.628,-997.68,0.146,-0.19
-352.0,33.0,4626.0,225.0,0.0,0.0,0.0,41.999,-19.516,-997.4,0.23,-0.25
-352.0,32.0,4626.0,225.0,0.0,0.0,0.0,45.095,-17.07,-996.89,0.208,-0.17
-352.0,32.0,4627.0,225.0,0.0,0.0,0.0,44.828,-14.714,-997.18,0.271,-0.17
-351.0,32.0,4628.0,225.0,0.0,0.0,0.0,46.677,-17.547,-994.63,0.414,-0.21
-350.0,33.0,4629.0,225.0,0.0,0.0,0.0,49.122,-20.103,-992.22,0.324,-0.2
-350.0,34.0,4630.0,225.0,0.0,0.0,0.0,48.521,-19.406,-992.81,0.39,-0.33
-349.0,34.0,4631.0,225.0,0.0,0.0,0.0,48.25,-16.831,-993.19,0.322,-0.15
-349.0,33.0,4632.0,225.0,0.0,0.0,0.0,48.368,-14.689,-993.06,0.167,-0.25
-348.0,33.0,4633.0,225.0,0.0,0.0,0.0,48.312,-17.577,-993.04,0.262,-0.11
-347.0,33.0,4634.0,225.0,0.0,0.0,0.0,48.209,-20.077,-990.6,0.192,-0.19
-347.0,33.0,4634.0,225.0,0.0,0.0,0.0,48.086,-19.253,-988.29,0.261,-0.24
-346.0,34.0,4635.0,225.0,0.0,0.0,0.0,48.174,-19.163,-991.26,0.419,-0.19
-345.0,34.0,4636.0,225.0,0.0,0.0,0.0,48.227,-19.458,-993.9,0.322,-0.19
-344.0,35.0,4637.0,225.0,0.0,0.0,0.0,45.804,-19.409,-993.19,0.392,-0.06
-344.0,35.0,4638.0,225.0,0.0,0.0,0.0,43.471,-19.371,-992.97,0.178,-0.1
-343.0,34.0,4639.0,225.0,0.0,0.0,0.0,44.069,-16.983,-993.17,0.213,-0.04
-342.0,34.0,4640.0,225.0,0.0,0.0,0.0,44.358,-17.011,-993.13,0.197,-0.13
-342.0,34.0,4641.0,225.0,0.0,0.0,0.0,41.775,-19.828,-993.12,0.275,-0.13
-343.0,35.0,4641.0,225.0,0.0,0.0,0.0,39.554,-19.621,-995.54,0.411,-0.09
-343.0,35.0,4642.0,225.0,0.0,0.0,0.0,40.12,-19.189,-995.51,0.327,-0.09
-343.0,36.0,4643.0,225.0,0.0,0.0,0.0,40.431,-19.403,-994.95,0.391,-0.1
-343.0,37.0,4644.0,225.0,0.0,0.0,0.0,40.357,-19.441,-997.57,0.317,-0.1
-343.0,37.0,4645.0,225.0,0.0,0.0,0.0,40.429,-19.437,-997.46,0.311,-0.1
-344.0,38.0,4646.0,225.0,0.0,0.0,0.0,40.436,-19.345,-996.94,0.357,-0.24
-344.0,38.0,4647.0,225.0,0.0,0.0,0.0,40.487,-19.336,-997.17,0.349,-0.19
-345.0,39.0,4648.0,225.0,0.0,0.0,0.0,42.877,-19.339,-997.05,0.336,-0.39
-345.0,39.0,4649.0,225.0,0.0,0.0,0.0,47.537,-19.29,-994.61,0.343,-0.26
-344.0,39.0,4649.0,225.0,0.0,0.0,0.0,49.341,-16.979,-994.65,0.338,-0.18
-344.0,39.0,4650.0,225.0,0.0,0.0,0.0,46.242,-14.783,-997.69,0.339,-0.33
-343.0,38.0,4651.0,225.0,0.0,0.0,0.0,46.115,-15.287,-995.01,0.199,-0.07
-343.0,38.0,4652.0,225.0,0.0,0.0,0.0,49.066,-15.54,-992.13,0.246,-0.29
-343.0,37.0,4653.0,225.0,0.0,0.0,0.0,48.755,-15.429,-992.95,0.181,-0.29
-342.0,36.0,4654.0,225.0,0.0,0.0,0.0,48.226,-15.514,-993.21,0.265,-0.12
-342.0,36.0,4655.0,225.0,0.0,0.0,0.0,48.362,-15.544,-993.06,0.271,-0.29
-340.0,35.0,4656.0,225.0,0.0,0.0,0.0,48.257,-15.6,-993.07,0.229,-0.11
-339.0,35.0,4656.0,225.0,0.0,0.0,0.0,48.23,-15.606,-993.08,0.235,-0.03
-339.0,35.0,4657.0,225.0,0.0,0.0,0.0,48.067,-17.863,-990.66,0.243,-0.29
-338.0,36.0,4658.0,225.0,0.0,0.0,0.0,47.963,-20.05,-988.26,0.382,-0.12
-337.0,36.0,4659.0,225.0,0.0,0.0,0.0,47.961,-19.453,-988.87,0.34,-0.26
-337.0,37.0,4660.0,225.0,0.0,0.0,0.0,45.585,-19.095,-989.23,0.402,-0.21
-336.0,37.0,4661.0,225.0,0.0,0.0,0.0,43.282,-19.175,-989.1,0.313,-0.01
-336.0,37.0,4662.0,225.0,0.0,0.0,0.0,43.986,-19.162,-991.52,0.164,-0.11
-335.0,36.0,4663.0,225.0,0.0,0.0,0.0,46.779,-19.228,-993.8,0.113,-0.06
-334.0,36.0,4664.0,225.0,0.0,0.0,0.0,46.554,-19.168,-993.23,0.094,-0.11
-334.0,35.0,4664.0,225.0,0.0,0.0,0.0,43.67,-19.179,-992.96,0.104,-0.13
-333.0,35.0,4665.0,225.0,0.0,0.0,0.0,43.922,-19.272,-993.13,0.342,-0.09
-333.0,36.0,4666.0,225.0,0.0,0.0,0.0,42.016,-19.361,-993.13,0.394,-0.08
-333.0,37.0,4667.0,225.0,0.0,0.0,0.0,41.834,-19.456,-993.13,0.375,-0.1
-332.0,37.0,4668.0,225.0,0.0,0.0,0.0,44.813,-17.165,-993.11,0.229,-0.1
-332.0,35.0,4669.0,225.0,0.0,0.0,0.0,44.536,-14.823,-993.17,0.045,-0.1
-332.0,33.0,4670.0,225.0,0.0,0.0,0.0,41.732,-15.284,-993.21,0.068,-0.1
-332.0,33.0,4671.0,225.0,0.0,0.0,0.0,39.614,-17.83,-993.2,0.131,-0.09
-332.0,33.0,4672.0,225.0,0.0,0.0,0.0,40.153,-19.932,-993.15,0.198,-0.1
-332.0,33.0,4672.0,225.0,0.0,0.0,0.0,42.886,-19.45,-993.11,0.301,-0.1
-331.0,33.0,4673.0,225.0,0.0,0.0,0.0,44.934,-19.125,-990.68,0.216,-0.1
-331.0,33.0,4674.0,225.0,0.0,0.0,0.0,42.041,-19.325,-990.79,0.289,-0.1
-331.0,34.0,4675.0,225.0,0.0,0.0,0.0,39.503,-19.356,-993.76,0.362,-0.1
-331.0,34.0,4676.0,225.0,0.0,0.0,0.0,40.254,-19.334,-993.47,0.31,-0.1
-331.0,35.0,4677.0,225.0,0.0,0.0,0.0,40.486,-19.248,-992.99,0.416,-0.1
-331.0,36.0,4678.0,225.0,0.0,0.0,0.0,42.705,-19.215,-993.16,0.321,-0.1
-331.0,36.0,4679.0,225.0,0.0,0.0,0.0,45.048,-19.164,-993.06,0.303,-0.1
-330.0,37.0,4679.0,225.0,0.0,0.0,0.0,44.541,-19.189,-995.49,0.354,-0.1
-330.0,37.0,4680.0,225.0,0.0,0.0,0.0,44.327,-19.251,-997.8,0.344,-0.1
-329.0,38.0,4681.0,225.0,0.0,0.0,0.0,44.459,-19.243,-997.22,0.336,-0.1
-329.0,37.0,4682.0,226.0,0.0,0.0,0.0,44.412,-19.271,-996.92,0.2,-0.24
-329.0,37.0,4683.0,226.0,0.0,0.0,0.0,44.433,-19.333,-997.08,0.24,-0.19
-329.0,36.0,4684.0,226.0,0.0,0.0,0.0,44.421,-19.396,-997.04,0.033,-0.25
-329.0,36.0,4684.0,226.0,0.0,0.0,0.0,42.009,-19.362,-994.7,0.172,-0.17
-329.0,36.0,4685.0,226.0,0.0,0.0,0.0,42.019,-19.359,-992.35,0.256,-0.02
-328.0,36.0,4685.0,226.0,0.0,0.0,0.0,44.977,-19.49,-992.9,0.246,-0.11
-328.0,37.0,4686.0,226.0,0.0,0.0,0.0,44.723,-19.557,-993.21,0.322,-0.05
-327.0,37.0,4687.0,226.0,0.0,0.0,0.0,44.141,-19.47,-990.65,0.206,-0.12
-327.0,37.0,4688.0,225.0,0.0,0.0,0.0,44.223,-19.345,-988.36,0.199,-0.13
-326.0,37.0,4689.0,225.0,0.0,0.0,0.0,44.044,-19.199,-986.55,0.258,-0.08
-326.0,37.0,4690.0,225.0,0.0,0.0,0.0,44.028,-19.125,-986.93,0.391,-0.09
-325.0,38.0,4691.0,225.0,0.0,0.0,0.0,44.055,-19.15,-989.67,0.333,-0.1
-325.0,39.0,4692.0,225.0,0.0,0.0,0.0,44.056,-19.084,-989.44,0.403,-0.09
-324.0,39.0,4692.0,225.0,0.0,0.0,0.0,44.053,-19.02,-988.95,0.308,-0.1
-324.0,39.0,4693.0,225.0,0.0,0.0,0.0,44.077,-18.99,-989.18,0.306,-0.1
-324.0,40.0,4694.0,225.0,0.0,0.0,0.0,44.189,-19.052,-991.5,0.355,-0.09
-323.0,40.0,4695.0,225.0,0.0,0.0,0.0,44.296,-19.141,-993.87,0.346,-0.1
-323.0,41.0,4696.0,225.0,0.0,0.0,0.0,44.379,-19.232,-995.64,0.336,-0.1
-322.0,40.0,4697.0,225.0,0.0,0.0,0.0,44.477,-17.004,-997.73,0.196,-0.1
-321.0,40.0,4697.0,225.0,0.0,0.0,0.0,44.404,-14.658,-994.97,0.239,-0.1
-321.0,39.0,4698.0,225.0,0.0,0.0,0.0,46.686,-15.213,-992.22,0.178,-0.1
-319.0,38.0,4698.0,225.0,0.0,0.0,0.0,49.026,-15.623,-992.94,0.121,-0.1
-319.0,37.0,4699.0,225.0,0.0,0.0,0.0,46.067,-15.499,-993.24,0.319,-0.1
-318.0,36.0,4700.0,225.0,0.0,0.0,0.0,43.349,-15.484,-990.76,0.162,-0.1
-317.0,35.0,4701.0,225.0,0.0,0.0,0.0,46.394,-15.458,-988.39,0.17,-0.1
-316.0,36.0,4702.0,225.0,0.0,0.0,0.0,48.977,-17.877,-988.88,0.297,-0.1
-315.0,35.0,4703.0,225.0,0.0,0.0,0.0,45.854,-20.119,-989.22,0.13,-0.1
-316.0,36.0,4704.0,225.0,0.0,0.0,0.0,43.251,-19.472,-989.09,0.331,-0.24
-316.0,37.0,4705.0,225.0,0.0,0.0,0.0,44.016,-19.131,-989.13,0.401,-0.19
-316.0,36.0,4706.0,225.0,0.0,0.0,0.0,44.395,-16.979,-991.55,0.283,-0.25
-316.0,36.0,4706.0,225.0,0.0,0.0,0.0,44.336,-14.663,-993.95,0.264,-0.17
-316.0,35.0,4707.0,225.0,0.0,0.0,0.0,44.384,-15.162,-993.34,0.228,-0.16
-316.0,34.0,4707.0,225.0,0.0,0.0,0.0,44.417,-15.382,-993.03,0.139,-0.2
-316.0,34.0,4708.0,225.0,0.0,0.0,0.0,44.459,-15.219,-993.21,0.284,-0.2
-316.0,34.0,4709.0,225.0,0.0,0.0,0.0,44.363,-15.197,-990.77,0.419,-0.19
-315.0,34.0,4710.0,225.0,0.0,0.0,0.0,44.354,-15.243,-990.83,0.313,-0.06
-315.0,33.0,4711.0,225.0,0.0,0.0,0.0,44.421,-15.425,-993.74,0.251,-0.1
-314.0,32.0,4712.0,225.0,0.0,0.0,0.0,44.366,-15.43,-993.47,0.072,-0.04
-314.0,29.0,4712.0,225.0,0.0,0.0,0.0,44.297,-15.422,-992.99,-0.098,-0.12
-313.0,28.0,4713.0,225.0,0.0,0.0,0.0,44.242,-15.445,-993.2,0.029,-0.13
-313.0,27.0,4714.0,225.0,0.0,0.0,0.0,44.185,-15.485,-993.15,0.188,-0.08
-312.0,27.0,4715.0,225.0,0.0,0.0,0.0,44.155,-15.569,-993.18,0.314,-0.09
-312.0,27.0,4716.0,225.0,0.0,0.0,0.0,44.232,-15.739,-995.54,0.452,-0.1
-311.0,27.0,4716.0,225.0,0.0,0.0,0.0,44.253,-15.77,-995.5,0.348,-0.09
-311.0,27.0,4717.0,225.0,0.0,0.0,0.0,44.192,-15.612,-992.57,0.332,-0.1
-311.0,27.0,4717.0,225.0,0.0,0.0,0.0,44.241,-15.494,-992.85,0.303,-0.24
-311.0,27.0,4718.0,225.0,0.0,0.0,0.0,44.283,-17.696,-993.28,0.329,-0.18
-311.0,28.0,4719.0,225.0,0.0,0.0,0.0,44.303,-19.839,-993.02,0.356,-0.25
-311.0,29.0,4720.0,225.0,0.0,0.0,0.0,44.351,-19.177,-993.09,0.344,-0.17
-310.0,29.0,4721.0,225.0,0.0,0.0,0.0,44.397,-18.852,-993.07,0.33,-0.02
-310.0,29.0,4722.0,225.0,0.0,0.0,0.0,42.058,-19.027,-993.14,0.334,-0.11
-310.0,30.0,4723.0,225.0,0.0,0.0,0.0,39.744,-19.027,-993.17,0.336,-0.04
-311.0,30.0,4724.0,225.0,0.0,0.0,0.0,40.297,-19.125,-993.16,0.338,-0.12
-311.0,31.0,4725.0,225.0,0.0,0.0,0.0,40.604,-21.625,-995.5,0.339,-0.13
-311.0,32.0,4725.0,225.0,0.0,0.0,0.0,40.439,-21.737,-997.84,0.336,-0.08
-311.0,33.0,4726.0,225.0,0.0,0.0,0.0,40.419,-18.889,-997.3,0.335,-0.09
-311.0,33.0,4727.0,225.0,0.0,0.0,0.0,40.376,-16.829,-997.04,0.337,-0.1
-312.0,33.0,4728.0,225.0,0.0,0.0,0.0,42.777,-15.038,-997.2,0.337,-0.23
-312.0,33.0,4729.0,225.0,0.0,0.0,0.0,45.015,-15.327,-994.72,0.336,-0.19
-313.0,33.0,4729.0,225.0,0.0,0.0,0.0,44.469,-15.658,-994.78,0.336,-0.39
-313.0,32.0,4730.0,225.0,0.0,0.0,0.0,44.403,-15.632,-1000.09,0.191,-0.26
-313.0,31.0,4730.0,225.0,0.0,0.0,0.0,44.635,-15.679,-999.76,0.241,-0.18
-313.0,30.0,4731.0,225.0,0.0,0.0,0.0,44.565,-15.525,-996.36,0.178,-0.19
-312.0,30.0,4732.0,225.0,0.0,0.0,0.0,44.658,-15.577,-996.85,0.26,0.02
-311.0,30.0,4733.0,225.0,0.0,0.0,0.0,47.049,-15.644,-997.23,0.267,-0.13
-310.0,29.0,4734.0,225.0,0.0,0.0,0.0,46.962,-15.676,-997.05,0.225,-0.08
-309.0,29.0,4735.0,225.0,0.0,0.0,0.0,43.946,-18.03,-997.08,0.23,-0.1
-309.0,29.0,4736.0,225.0,0.0,0.0,0.0,44.092,-20.329,-997.02,0.238,-0.12
-308.0,29.0,4737.0,225.0,0.0,0.0,0.0,46.842,-19.767,-997.01,0.233,-0.08
-308.0,29.0,4738.0,225.0,0.0,0.0,0.0,46.505,-19.437,-996.99,0.241,-0.22
-308.0,29.0,4738.0,225.0,0.0,0.0,0.0,45.923,-19.481,-994.61,0.239,-0.2
-307.0,29.0,4739.0,225.0,0.0,0.0,0.0,48.443,-19.346,-992.24,0.233,-0.25
-307.0,29.0,4740.0,225.0,0.0,0.0,0.0,48.447,-19.349,-992.82,0.235,-0.17
-305.0,29.0,4741.0,225.0,0.0,0.0,0.0,48.028,-16.973,-993.19,0.237,-0.02
-304.0,27.0,4742.0,225.0,0.0,0.0,0.0,48.428,-14.766,-995.45,0.092,-0.11
-303.0,26.0,4743.0,225.0,0.0,0.0,0.0,48.502,-15.428,-997.82,-0.003,-0.04
-302.0,25.0,4744.0,225.0,0.0,0.0,0.0,48.515,-18.065,-997.16,0.126,-0.12
-301.0,24.0,4745.0,225.0,0.0,0.0,0.0,46.063,-17.856,-996.93,0.096,-0.13
-301.0,24.0,4745.0,225.0,0.0,0.0,0.0,43.716,-15.071,-997.18,0.396,-0.22
-301.0,24.0,4746.0,225.0,0.0,0.0,0.0,44.242,-15.399,-997.12,0.371,-0.18
-302.0,24.0,4747.0,225.0,0.0,0.0,0.0,44.5,-15.907,-997.12,0.34,-0.25
-302.0,25.0,4748.0,225.0,0.0,0.0,0.0,41.951,-17.959,-997.11,0.378,-0.17
-302.0,25.0,4749.0,225.0,0.0,0.0,0.0,39.694,-20.185,-997.12,0.288,-0.02
-302.0,26.0,4750.0,225.0,0.0,0.0,0.0,40.322,-19.462,-997.12,0.316,-0.11
-302.0,26.0,4751.0,225.0,0.0,0.0,0.0,40.685,-19.083,-997.11,0.363,-0.04
-302.0,27.0,4752.0,225.0,0.0,0.0,0.0,40.52,-16.824,-997.16,0.335,-0.12
-303.0,26.0,4753.0,225.0,0.0,0.0,0.0,40.632,-14.565,-999.6,0.33,-0.13
-303.0,26.0,4753.0,225.0,0.0,0.0,0.0,40.575,-15.192,-999.53,0.337,-0.08
-303.0,27.0,4754.0,225.0,0.0,0.0,0.0,40.434,-17.772,-996.55,0.33,-0.09
-303.0,26.0,4755.0,225.0,0.0,0.0,0.0,42.685,-19.932,-994.36,0.191,-0.24
-303.0,27.0,4756.0,225.0,0.0,0.0,0.0,44.943,-19.421,-992.47,0.244,-0.18
-303.0,26.0,4757.0,225.0,0.0,0.0,0.0,44.39,-19.181,-992.86,0.029,-0.25
-304.0,24.0,4758.0,225.0,0.0,0.0,0.0,44.133,-19.444,-993.22,0.018,-0.31
-304.0,24.0,4759.0,225.0,0.0,0.0,0.0,44.357,-19.447,-993.02,0.157,-0.11
-304.0,24.0,4760.0,225.0,0.0,0.0,0.0,44.385,-19.533,-993.1,0.083,-0.26
-304.0,24.0,4760.0,225.0,0.0,0.0,0.0,44.452,-19.583,-993.07,0.387,-0.26
-304.0,24.0,4761.0,225.0,0.0,0.0,0.0,44.544,-19.713,-995.48,0.227,-0.13
-305.0,25.0,4762.0,225.0,0.0,0.0,0.0,44.634,-19.774,-997.81,0.242,-0.44
-306.0,24.0,4763.0,225.0,0.0,0.0,0.0,42.226,-17.298,-997.31,0.223,-0.33
-308.0,23.0,4764.0,225.0,0.0,0.0,0.0,39.872,-14.853,-997.09,0.214,-0.28
-309.0,24.0,4765.0,225.0,0.0,0.0,0.0,40.441,-15.318,-997.24,0.388,-0.37
-309.0,23.0,4766.0,225.0,0.0,0.0,0.0,40.736,-15.523,-997.18,0.201,-0.03
-310.0,23.0,4767.0,225.0,0.0,0.0,0.0,40.568,-15.296,-997.2,0.293,-0.19
-310.0,21.0,4768.0,225.0,0.0,0.0,0.0,40.503,-17.573,-994.74,0.004,-0.19
-311.0,21.0,4768.0,225.0,0.0,0.0,0.0,40.357,-19.782,-992.38,0.133,-0.2
-312.0,21.0,4769.0,225.0,0.0,0.0,0.0,40.33,-19.295,-992.98,0.262,-0.21
-311.0,21.0,4770.0,225.0,0.0,0.0,0.0,42.637,-19.101,-993.24,0.252,-0.05
-310.0,22.0,4771.0,225.0,0.0,0.0,0.0,44.908,-19.385,-993.03,0.461,-0.08
-310.0,22.0,4771.0,225.0,0.0,0.0,0.0,44.384,-19.498,-995.47,0.152,-0.04
-310.0,22.0,4772.0,225.0,0.0,0.0,0.0,41.766,-19.577,-997.85,0.254,-0.12
-310.0,21.0,4772.0,225.0,0.0,0.0,0.0,39.603,-17.136,-997.36,0.024,-0.12
-311.0,19.0,4774.0,225.0,0.0,0.0,0.0,40.148,-14.795,-997.08,-0.002,-0.22
-312.0,17.0,4774.0,225.0,0.0,0.0,0.0,40.482,-15.344,-997.23,0.022,-0.18
-312.0,15.0,4775.0,225.0,0.0,0.0,0.0,42.709,-15.673,-997.14,-0.146,-0.25
-312.0,14.0,4776.0,225.0,0.0,0.0,0.0,45.14,-17.94,-997.06,0.124,-0.17
-311.0,13.0,4777.0,225.0,0.0,0.0,0.0,44.606,-20.36,-997.01,-0.008,-0.03
-311.0,13.0,4778.0,225.0,0.0,0.0,0.0,44.389,-19.859,-997.04,0.097,-0.11
-310.0,13.0,4779.0,225.0,0.0,0.0,0.0,42.214,-19.608,-997.09,0.185,-0.04
-310.0,12.0,4780.0,225.0,0.0,0.0,0.0,39.844,-19.735,-997.13,0.092,-0.11
-311.0,13.0,4781.0,225.0,0.0,0.0,0.0,40.397,-19.64,-997.12,0.342,-0.13
-311.0,13.0,4781.0,225.0,0.0,0.0,0.0,42.988,-19.572,-997.07,0.364,-0.22
-311.0,14.0,4782.0,225.0,0.0,0.0,0.0,42.722,-19.416,-997.07,0.354,-0.18
-312.0,15.0,4783.0,225.0,0.0,0.0,0.0,39.826,-19.259,-997.12,0.385,-0.25
-313.0,15.0,4784.0,225.0,0.0,0.0,0.0,40.1,-19.12,-997.12,0.286,-0.16
-313.0,16.0,4785.0,225.0,0.0,0.0,0.0,40.636,-19.013,-997.11,0.308,-0.02
-313.0,15.0,4786.0,225.0,0.0,0.0,0.0,40.463,-18.963,-997.11,0.214,-0.11
-312.0,16.0,4787.0,225.0,0.0,0.0,0.0,42.935,-18.999,-997.07,0.242,-0.04
-312.0,15.0,4788.0,225.0,0.0,0.0,0.0,45.16,-19.013,-994.64,0.172,-0.11
-311.0,15.0,4789.0,225.0,0.0,0.0,0.0,44.577,-19.138,-994.7,0.259,-0.13
-311.0,16.0,4789.0,225.0,0.0,0.0,0.0,44.306,-19.389,-997.63,0.403,-0.08
-310.0,17.0,4790.0,225.0,0.0,0.0,0.0,44.406,-21.861,-997.3,0.317,-0.08
-310.0,19.0,4791.0,225.0,0.0,0.0,0.0,41.936,-24.204,-996.82,0.39,-0.1
-311.0,20.0,4792.0,225.0,0.0,0.0,0.0,39.62,-23.636,-997.09,0.31,-0.23
-312.0,21.0,4793.0,225.0,0.0,0.0,0.0,40.274,-23.389,-999.42,0.299,-0.19
-313.0,22.0,4794.0,225.0,0.0,0.0,0.0,40.617,-23.486,-999.39,0.35,-0.25
-313.0,24.0,4795.0,225.0,0.0,0.0,0.0,40.474,-23.344,-998.82,0.342,-0.16
-313.0,24.0,4796.0,225.0,0.0,0.0,0.0,40.675,-21.046,-1001.5,0.328,-0.02
-314.0,24.0,4796.0,225.0,0.0,0.0,0.0,40.656,-18.611,-999.05,0.191,-0.25
-314.0,24.0,4797.0,225.0,0.0,0.0,0.0,42.979,-19.114,-996.13,0.235,-0.13
-314.0,24.0,4798.0,225.0,0.0,0.0,0.0,42.932,-19.463,-996.94,0.172,-0.27
-315.0,24.0,4799.0,225.0,0.0,0.0,0.0,42.305,-19.259,-994.8,0.261,-0.34
-315.0,25.0,4800.0,225.0,0.0,0.0,0.0,47.172,-19.331,-992.24,0.408,-0.24
-316.0,25.0,4801.0,225.0,0.0,0.0,0.0,47.008,-19.407,-992.84,0.315,-0.49
-317.0,26.0,4802.0,225.0,0.0,0.0,0.0,45.994,-17.119,-993.22,0.386,-0.37
-317.0,25.0,4803.0,225.0,0.0,0.0,0.0,48.781,-14.739,-990.67,0.166,-0.41
-317.0,24.0,4803.0,225.0,0.0,0.0,0.0,48.633,-17.619,-990.7,0.205,-0.24
-316.0,24.0,4804.0,225.0,0.0,0.0,0.0,48.303,-17.914,-993.62,0.191,-0.26
-317.0,23.0,4805.0,225.0,0.0,0.0,0.0,48.525,-14.827,-993.42,0.266,-0.37
-317.0,24.0,4806.0,225.0,0.0,0.0,0.0,46.057,-15.105,-992.96,0.403,-0.27
-318.0,24.0,4807.0,225.0,0.0,0.0,0.0,43.733,-15.57,-993.21,0.319,-0.37
-317.0,23.0,4808.0,225.0,0.0,0.0,0.0,44.203,-15.399,-993.16,0.237,-0.05
-317.0,22.0,4809.0,225.0,0.0,0.0,0.0,44.535,-15.527,-995.56,0.214,-0.18
-319.0,21.0,4811.0,225.0,0.0,0.0,0.0,44.252,-15.547,-996.99,0.416,-0.45
-320.0,21.0,4812.0,225.0,0.0,0.0,0.0,41.949,-15.641,-999.59,0.311,-0.29
-321.0,21.0,4813.0,225.0,0.0,0.0,0.0,39.714,-15.726,-1001.93,0.387,-0.31
-321.0,21.0,4814.0,225.0,0.0,0.0,0.0,40.348,-18.041,-1001.29,0.162,-0.04
-321.0,20.0,4815.0,225.0,0.0,0.0,0.0,43.103,-20.315,-1000.87,0.057,-0.2
-321.0,20.0,4816.0,225.0,0.0,0.0,0.0,42.957,-19.71,-1001.07,0.098,-0.18
-322.0,19.0,4817.0,225.0,0.0,0.0,0.0,40.113,-19.38,-1001.08,0.107,-0.21
-323.0,20.0,4818.0,225.0,0.0,0.0,0.0,40.272,-19.51,-998.69,0.325,-0.21
-322.0,20.0,4819.0,225.0,0.0,0.0,0.0,40.633,-19.463,-996.33,0.394,-0.04
-323.0,21.0,4819.0,225.0,0.0,0.0,0.0,40.374,-19.559,-996.94,0.365,-0.22
-323.0,22.0,4820.0,225.0,0.0,0.0,0.0,40.307,-21.826,-994.81,0.361,-0.13
-324.0,23.0,4821.0,225.0,0.0,0.0,0.0,42.547,-21.665,-992.25,0.281,-0.27
-324.0,23.0,4822.0,225.0,0.0,0.0,0.0,44.926,-18.738,-992.9,0.314,-0.2
-323.0,24.0,4823.0,225.0,0.0,0.0,0.0,44.271,-18.824,-990.82,0.356,-0.01
-323.0,24.0,4824.0,225.0,0.0,0.0,0.0,43.92,-19.124,-988.33,0.337,-0.1
-322.0,25.0,4824.0,225.0,0.0,0.0,0.0,44.237,-18.987,-991.34,0.328,-0.04
-322.0,25.0,4825.0,225.0,0.0,0.0,0.0,44.295,-19.138,-993.97,0.331,-0.25
-322.0,26.0,4825.0,225.0,0.0,0.0,0.0,44.276,-19.116,-993.23,0.327,-0.22
-323.0,26.0,4826.0,225.0,0.0,0.0,0.0,41.954,-16.905,-995.43,0.333,-0.23
-323.0,26.0,4827.0,225.0,0.0,0.0,0.0,39.745,-14.721,-998.02,0.335,-0.15
-324.0,26.0,4828.0,225.0,0.0,0.0,0.0,40.331,-15.332,-997.39,0.33,-0.16
-324.0,26.0,4829.0,225.0,0.0,0.0,0.0,40.647,-18.017,-997.01,0.33,-0.2
-325.0,27.0,4830.0,225.0,0.0,0.0,0.0,40.51,-20.165,-997.13,0.332,-0.2
-326.0,27.0,4831.0,225.0,0.0,0.0,0.0,40.573,-19.639,-997.12,0.331,-0.19
-325.0,28.0,4832.0,225.0,0.0,0.0,0.0,40.568,-19.325,-997.12,0.332,-0.05
-325.0,28.0,4832.0,225.0,0.0,0.0,0.0,40.574,-19.497,-997.1,0.331,-0.09
-325.0,29.0,4833.0,225.0,0.0,0.0,0.0,40.455,-19.339,-994.73,0.331,-0.03
-325.0,29.0,4834.0,225.0,0.0,0.0,0.0,42.71,-19.275,-992.34,0.331,-0.12
-325.0,30.0,4835.0,225.0,0.0,0.0,0.0,42.622,-19.27,-992.93,0.331,-0.12
-325.0,30.0,4836.0,225.0,0.0,0.0,0.0,42.042,-19.28,-993.25,0.331,-0.08
-325.0,30.0,4836.0,226.0,0.0,0.0,0.0,44.604,-19.294,-993.03,0.186,-0.22
-325.0,30.0,4837.0,226.0,0.0,0.0,0.0,44.489,-19.293,-993.08,0.236,-0.19
-325.0,30.0,4837.0,226.0,0.0,0.0,0.0,43.998,-19.304,-993.08,0.172,-0.24
-325.0,29.0,4838.0,226.0,0.0,0.0,0.0,44.29,-16.989,-993.14,0.11,-0.17
-324.0,28.0,4839.0,226.0,0.0,0.0,0.0,41.93,-14.716,-993.22,0.166,-0.02
-325.0,27.0,4840.0,226.0,0.0,0.0,0.0,39.786,-17.758,-995.59,0.061,-0.1
-325.0,26.0,4840.0,226.0,0.0,0.0,0.0,42.83,-18.169,-997.87,0.149,-0.18
-325.0,26.0,4841.0,226.0,0.0,0.0,0.0,43.092,-15.152,-997.34,0.309,-0.21
-326.0,26.0,4842.0,225.0,0.0,0.0,0.0,42.336,-17.819,-996.99,0.357,-0.28
-325.0,27.0,4843.0,225.0,0.0,0.0,0.0,44.935,-18.237,-997.1,0.383,-0.15
-324.0,27.0,4844.0,225.0,0.0,0.0,0.0,44.796,-17.448,-997.07,0.371,-0.01
-324.0,28.0,4844.0,225.0,0.0,0.0,0.0,44.197,-19.853,-994.65,0.27,-0.11
-323.0,28.0,4845.0,225.0,0.0,0.0,0.0,44.402,-19.588,-994.69,0.316,-0.04
-323.0,29.0,4846.0,225.0,0.0,0.0,0.0,44.414,-19.105,-997.64,0.353,-0.12
-323.0,29.0,4847.0,225.0,0.0,0.0,0.0,44.414,-19.228,-997.35,0.333,-0.27
-323.0,30.0,4848.0,225.0,0.0,0.0,0.0,44.323,-19.13,-996.87,0.331,-0.16
-324.0,29.0,4849.0,225.0,0.0,0.0,0.0,44.328,-19.222,-997.08,0.184,-0.38
-324.0,29.0,4850.0,225.0,0.0,0.0,0.0,42.056,-19.309,-999.46,0.084,-0.26
-325.0,28.0,4851.0,225.0,0.0,0.0,0.0,39.782,-19.386,-999.48,0.079,-0.17
-326.0,27.0,4851.0,225.0,0.0,0.0,0.0,40.355,-19.394,-996.51,0.099,-0.32
-326.0,28.0,4852.0,225.0,0.0,0.0,0.0,40.748,-19.517,-996.81,0.328,-0.06
-328.0,28.0,4853.0,225.0,0.0,0.0,0.0,40.644,-19.649,-997.29,0.244,-0.42
-329.0,28.0,4854.0,225.0,0.0,0.0,0.0,40.623,-17.277,-994.72,0.271,-0.24
-330.0,27.0,4855.0,225.0,0.0,0.0,0.0,42.9,-14.923,-992.45,0.202,-0.32
-331.0,26.0,4856.0,225.0,0.0,0.0,0.0,45.215,-15.478,-992.95,0.2,-0.43
-331.0,26.0,4857.0,225.0,0.0,0.0,0.0,44.59,-15.682,-993.3,0.244,-0.34
-332.0,24.0,4858.0,225.0,0.0,0.0,0.0,44.265,-15.401,-993.12,0.099,-0.44
-333.0,23.0,4858.0,225.0,0.0,0.0,0.0,44.52,-15.454,-995.55,0.133,-0.37
-333.0,22.0,4859.0,225.0,0.0,0.0,0.0,46.943,-15.51,-997.84,0.071,-0.34
-333.0,21.0,4860.0,225.0,0.0,0.0,0.0,46.89,-17.857,-997.21,0.15,-0.25
-334.0,22.0,4861.0,225.0,0.0,0.0,0.0,46.407,-20.25,-999.25,0.305,-0.44
-334.0,22.0,4862.0,225.0,0.0,0.0,0.0,46.721,-19.83,-1001.76,0.219,-0.17
-333.0,22.0,4863.0,225.0,0.0,0.0,0.0,46.605,-19.557,-1001.14,0.283,-0.23
-333.0,22.0,4864.0,225.0,0.0,0.0,0.0,46.552,-19.722,-1000.84,0.206,-0.14
-331.0,22.0,4865.0,225.0,0.0,0.0,0.0,44.116,-19.637,-1001.04,0.197,0.02
-331.0,22.0,4866.0,225.0,0.0,0.0,0.0,46.371,-19.533,-998.57,0.247,-0.16
-329.0,22.0,4866.0,225.0,0.0,0.0,0.0,49.089,-19.409,-996.19,0.24,-0.06
-329.0,22.0,4867.0,225.0,0.0,0.0,0.0,48.184,-19.403,-996.77,0.224,-0.23
-329.0,22.0,4868.0,225.0,0.0,0.0,0.0,45.545,-19.374,-997.15,0.232,-0.21
-329.0,22.0,4868.0,225.0,0.0,0.0,0.0,43.276,-16.913,-994.67,0.228,-0.23
-330.0,21.0,4869.0,225.0,0.0,0.0,0.0,43.832,-14.561,-992.41,0.228,-0.29
-330.0,21.0,4870.0,225.0,0.0,0.0,0.0,44.253,-15.185,-992.98,0.377,-0.26
-331.0,21.0,4871.0,225.0,0.0,0.0,0.0,44.277,-15.606,-995.69,0.325,-0.35
-332.0,22.0,4872.0,225.0,0.0,0.0,0.0,44.544,-15.531,-997.84,0.388,-0.41
-332.0,21.0,4872.0,225.0,0.0,0.0,0.0,44.619,-15.546,-997.3,0.306,-0.21
-332.0,21.0,4873.0,225.0,0.0,0.0,0.0,44.704,-15.497,-996.98,0.298,-0.36
-333.0,21.0,4874.0,225.0,0.0,0.0,0.0,44.741,-15.486,-997.17,0.341,-0.35
-333.0,21.0,4875.0,225.0,0.0,0.0,0.0,44.735,-15.444,-997.11,0.337,-0.23
-334.0,21.0,4876.0,225.0,0.0,0.0,0.0,44.681,-17.786,-997.08,0.327,-0.39
-333.0,22.0,4877.0,225.0,0.0,0.0,0.0,44.596,-20.094,-997.02,0.331,-0.05
-332.0,22.0,4878.0,225.0,0.0,0.0,0.0,44.455,-17.102,-994.7,0.325,-0.03
-332.0,21.0,4879.0,225.0,0.0,0.0,0.0,44.292,-16.799,-992.36,0.182,-0.08
-332.0,21.0,4879.0,225.0,0.0,0.0,0.0,44.195,-19.889,-992.89,0.092,-0.18
-332.0,20.0,4880.0,225.0,0.0,0.0,0.0,44.102,-19.616,-993.21,0.075,-0.37
-333.0,20.0,4881.0,225.0,0.0,0.0,0.0,44.015,-19.205,-993.04,0.093,-0.36
-334.0,20.0,4882.0,225.0,0.0,0.0,0.0,43.992,-19.471,-993.08,0.328,-0.29
-333.0,20.0,4883.0,226.0,0.0,0.0,0.0,44.047,-19.508,-993.08,0.242,-0.09
-332.0,20.0,4884.0,226.0,0.0,0.0,0.0,44.164,-19.582,-993.09,0.27,-0.04
-332.0,21.0,4885.0,226.0,0.0,0.0,0.0,44.274,-21.886,-993.03,0.201,-0.05
-332.0,21.0,4886.0,226.0,0.0,0.0,0.0,44.337,-24.137,-992.99,0.198,-0.21
-333.0,23.0,4887.0,226.0,0.0,0.0,0.0,44.347,-23.465,-993.01,0.387,-0.38
-334.0,24.0,4887.0,226.0,0.0,0.0,0.0,44.306,-23.063,-993.01,0.338,-0.49
-336.0,25.0,4888.0,226.0,0.0,0.0,0.0,44.278,-20.81,-993.05,0.385,-0.53
-336.0,25.0,4889.0,226.0,0.0,0.0,0.0,44.219,-18.321,-990.71,0.304,-0.33
-337.0,25.0,4890.0,225.0,0.0,0.0,0.0,44.206,-18.772,-988.36,0.149,-0.26
-336.0,25.0,4890.0,225.0,0.0,0.0,0.0,44.324,-19.05,-988.95,0.244,-0.06
-335.0,24.0,4891.0,225.0,0.0,0.0,0.0,44.427,-16.574,-989.3,0.181,-0.01
-334.0,24.0,4891.0,225.0,0.0,0.0,0.0,44.44,-14.372,-989.18,0.251,-0.11
-334.0,24.0,4892.0,225.0,0.0,0.0,0.0,44.351,-15.026,-989.21,0.404,-0.21
-334.0,23.0,4893.0,225.0,0.0,0.0,0.0,44.209,-13.094,-989.24,0.307,-0.21
-335.0,23.0,4894.0,225.0,0.0,0.0,0.0,44.127,-13.116,-991.65,0.379,-0.26
-334.0,22.0,4895.0,225.0,0.0,0.0,0.0,44.087,-13.788,-993.96,0.31,-0.14
-334.0,21.0,4896.0,226.0,0.0,0.0,0.0,44.045,-11.161,-993.42,0.15,-0.01
-334.0,20.0,4897.0,226.0,0.0,0.0,0.0,44.145,-11.307,-995.51,0.248,-0.25
-334.0,19.0,4898.0,226.0,0.0,0.0,0.0,44.278,-14.195,-997.95,0.179,-0.27
-335.0,18.0,4899.0,226.0,0.0,0.0,0.0,44.319,-16.232,-997.28,0.246,-0.36
-336.0,18.0,4900.0,226.0,0.0,0.0,0.0,44.468,-15.821,-999.38,0.405,-0.35
-336.0,18.0,4900.0,226.0,0.0,0.0,0.0,44.559,-15.513,-999.49,0.308,-0.21
-335.0,18.0,4901.0,226.0,0.0,0.0,0.0,44.55,-15.636,-996.53,0.378,-0.12
-336.0,19.0,4901.0,226.0,0.0,0.0,0.0,44.618,-17.937,-996.77,0.309,-0.35
-336.0,19.0,4902.0,225.0,0.0,0.0,0.0,44.568,-20.135,-994.79,0.294,-0.22
-336.0,19.0,4903.0,225.0,0.0,0.0,0.0,44.544,-19.5,-994.66,0.197,-0.23
-336.0,19.0,4904.0,225.0,0.0,0.0,0.0,44.511,-19.193,-995.25,0.242,-0.2
-335.0,18.0,4905.0,225.0,0.0,0.0,0.0,44.357,-19.249,-992.6,0.018,-0.08
-335.0,17.0,4905.0,225.0,0.0,0.0,0.0,44.309,-16.885,-992.8,0.159,-0.21
-335.0,17.0,4906.0,225.0,0.0,0.0,0.0,44.259,-17.026,-993.3,0.241,-0.23
-335.0,17.0,4906.0,225.0,0.0,0.0,0.0,44.177,-19.951,-993.02,0.088,-0.17
-334.0,17.0,4907.0,225.0,0.0,0.0,0.0,44.159,-17.422,-993.15,0.364,-0.04
-334.0,15.0,4908.0,225.0,0.0,0.0,0.0,44.165,-14.704,-993.15,-0.015,-0.09
-333.0,13.0,4909.0,225.0,0.0,0.0,0.0,44.172,-15.494,-993.18,0.029,-0.02
-333.0,12.0,4910.0,225.0,0.0,0.0,0.0,44.101,-15.631,-990.77,0.144,-0.12
-332.0,11.0,4911.0,225.0,0.0,0.0,0.0,44.106,-15.457,-990.82,0.052,-0.12
-332.0,11.0,4911.0,225.0,0.0,0.0,0.0,44.202,-15.551,-993.75,0.245,-0.07
-332.0,10.0,4912.0,225.0,0.0,0.0,0.0,44.198,-15.532,-993.47,0.282,-0.22
-332.0,9.0,4913.0,225.0,0.0,0.0,0.0,44.201,-15.51,-992.99,0.162,-0.18
-332.0,9.0,4914.0,225.0,0.0,0.0,0.0,46.618,-15.477,-993.16,0.298,-0.24
-331.0,9.0,4915.0,225.0,0.0,0.0,0.0,48.989,-15.443,-993.06,0.357,-0.17
-329.0,9.0,4916.0,225.0,0.0,0.0,0.0,48.466,-15.373,-993.1,0.286,-0.02
-329.0,9.0,4917.0,225.0,0.0,0.0,0.0,48.217,-15.3,-993.07,0.409,-0.24
-328.0,9.0,4918.0,225.0,0.0,0.0,0.0,48.416,-15.249,-993.09,0.306,-0.27
-328.0,9.0,4919.0,225.0,0.0,0.0,0.0,48.37,-15.211,-993.09,0.286,-0.36
-328.0,9.0,4919.0,225.0,0.0,0.0,0.0,48.362,-15.197,-993.08,0.345,-0.35
-328.0,9.0,4920.0,225.0,0.0,0.0,0.0,48.258,-15.125,-990.7,0.331,-0.21
-327.0,8.0,4921.0,225.0,0.0,0.0,0.0,48.288,-15.169,-990.75,0.321,-0.11
-327.0,8.0,4922.0,225.0,0.0,0.0,0.0,46.107,-15.399,-996.11,0.333,-0.21
-326.0,8.0,4923.0,225.0,0.0,0.0,0.0,43.852,-15.513,-998.21,0.321,-0.13
-326.0,8.0,4924.0,225.0,0.0,0.0,0.0,44.373,-15.534,-997.13,0.323,-0.21
-326.0,8.0,4925.0,225.0,0.0,0.0,0.0,44.613,-15.574,-997.03,0.33,-0.21
-326.0,8.0,4926.0,225.0,0.0,0.0,0.0,44.38,-15.602,-997.15,0.325,-0.16
-326.0,8.0,4927.0,225.0,0.0,0.0,0.0,44.354,-17.958,-997.09,0.324,-0.18
-326.0,9.0,4927.0,225.0,0.0,0.0,0.0,42.004,-20.312,-999.45,0.327,-0.19
-327.0,10.0,4928.0,225.0,0.0,0.0,0.0,39.775,-19.787,-1001.84,0.325,-0.18
-327.0,10.0,4929.0,225.0,0.0,0.0,0.0,42.636,-19.392,-998.83,0.326,-0.19
-327.0,11.0,4930.0,225.0,0.0,0.0,0.0,45.201,-19.472,-996.12,0.326,-0.19
-326.0,11.0,4931.0,225.0,0.0,0.0,0.0,44.427,-19.352,-994.51,0.325,-0.04
-326.0,12.0,4932.0,225.0,0.0,0.0,0.0,44.122,-19.277,-992.44,0.325,-0.09
-326.0,12.0,4933.0,225.0,0.0,0.0,0.0,44.404,-17.014,-995.31,0.326,-0.17
-326.0,12.0,4934.0,225.0,0.0,0.0,0.0,44.474,-14.832,-998.02,0.325,-0.2
-327.0,12.0,4934.0,225.0,0.0,0.0,0.0,44.421,-15.383,-997.25,0.325,-0.41
-327.0,12.0,4935.0,225.0,0.0,0.0,0.0,44.384,-15.676,-997.0,0.325,-0.24
-327.0,12.0,4935.0,226.0,0.0,0.0,0.0,44.426,-15.522,-997.14,0.325,-0.16
-326.0,12.0,4936.0,226.0,0.0,0.0,0.0,44.469,-15.567,-997.12,0.325,-0.18
-325.0,11.0,4937.0,226.0,0.0,0.0,0.0,44.525,-15.559,-997.12,0.325,0.03
-325.0,11.0,4938.0,226.0,0.0,0.0,0.0,44.563,-15.577,-997.1,0.325,-0.13
-324.0,12.0,4939.0,226.0,0.0,0.0,0.0,44.456,-17.823,-994.69,0.325,-0.07
-324.0,12.0,4940.0,226.0,0.0,0.0,0.0,41.931,-20.01,-992.34,0.325,-0.09
-324.0,13.0,4940.0,226.0,0.0,0.0,0.0,39.549,-19.434,-992.99,0.325,-0.11
-324.0,13.0,4941.0,226.0,0.0,0.0,0.0,40.068,-19.145,-993.29,0.325,-0.08
-324.0,13.0,4942.0,225.0,0.0,0.0,0.0,42.688,-19.33,-993.07,0.18,-0.08
-323.0,13.0,4943.0,225.0,0.0,0.0,0.0,44.824,-19.31,-993.07,0.23,-0.1
-323.0,13.0,4944.0,225.0,0.0,0.0,0.0,44.375,-19.41,-995.46,0.166,-0.09
-323.0,13.0,4945.0,225.0,0.0,0.0,0.0,44.108,-17.067,-995.48,0.249,-0.23
-323.0,13.0,4946.0,225.0,0.0,0.0,0.0,44.258,-14.722,-992.58,0.4,-0.18
-323.0,13.0,4947.0,225.0,0.0,0.0,0.0,44.264,-15.344,-992.86,0.308,-0.24
-323.0,13.0,4948.0,225.0,0.0,0.0,0.0,44.356,-15.673,-993.33,0.377,-0.16
-322.0,13.0,4948.0,225.0,0.0,0.0,0.0,46.775,-15.501,-993.07,0.303,-0.02
-321.0,12.0,4949.0,225.0,0.0,0.0,0.0,46.784,-15.49,-993.13,0.291,-0.1
-320.0,12.0,4950.0,225.0,0.0,0.0,0.0,43.892,-15.384,-993.15,0.341,-0.04
-320.0,12.0,4951.0,225.0,0.0,0.0,0.0,44.141,-15.349,-993.18,0.189,-0.11
-319.0,11.0,4952.0,225.0,0.0,0.0,0.0,44.553,-15.307,-993.15,0.224,-0.12
-319.0,10.0,4953.0,225.0,0.0,0.0,0.0,41.887,-15.288,-993.2,0.168,-0.07
-320.0,9.0,4954.0,225.0,0.0,0.0,0.0,39.554,-15.307,-993.25,0.1,-0.22
-321.0,9.0,4955.0,225.0,0.0,0.0,0.0,40.073,-15.373,-993.24,0.303,-0.18
-321.0,8.0,4956.0,225.0,0.0,0.0,0.0,40.408,-15.455,-993.23,0.153,-0.24
-323.0,8.0,4956.0,225.0,0.0,0.0,0.0,40.256,-15.522,-993.24,0.301,-0.3
-322.0,8.0,4957.0,225.0,0.0,0.0,0.0,42.737,-15.584,-993.19,0.376,-0.11
-323.0,7.0,4958.0,225.0,0.0,0.0,0.0,45.133,-15.603,-993.15,0.275,-0.25
-322.0,8.0,4959.0,225.0,0.0,0.0,0.0,44.631,-15.552,-993.16,0.392,-0.11
-321.0,8.0,4960.0,225.0,0.0,0.0,0.0,44.341,-17.814,-993.12,0.312,-0.04
-321.0,8.0,4961.0,225.0,0.0,0.0,0.0,44.5,-20.015,-993.07,0.286,-0.13
-321.0,9.0,4962.0,225.0,0.0,0.0,0.0,44.419,-19.352,-993.08,0.342,-0.16
-321.0,10.0,4963.0,225.0,0.0,0.0,0.0,44.352,-18.997,-993.09,0.33,-0.19
-321.0,10.0,4964.0,225.0,0.0,0.0,0.0,44.253,-19.148,-993.08,0.317,-0.28
-321.0,10.0,4964.0,225.0,0.0,0.0,0.0,44.21,-19.123,-993.08,0.185,-0.14
-320.0,9.0,4965.0,225.0,0.0,0.0,0.0,44.203,-16.829,-993.13,0.08,-0.01
-320.0,6.0,4966.0,225.0,0.0,0.0,0.0,44.232,-14.58,-993.18,-0.078,-0.11
-319.0,4.0,4967.0,225.0,0.0,0.0,0.0,44.263,-15.259,-993.16,-0.147,-0.03
-319.0,2.0,4968.0,225.0,0.0,0.0,0.0,44.275,-15.672,-993.16,-0.076,-0.25
-319.0,0.0,4969.0,225.0,0.0,0.0,0.0,46.646,-15.663,-993.12,-0.093,-0.21
-319.0,0.0,4970.0,225.0,0.0,0.0,0.0,46.585,-15.848,-993.12,0.106,-0.22
-318.0,-1.0,4971.0,225.0,0.0,0.0,0.0,43.687,-15.91,-993.17,0.178,-0.15
-318.0,-1.0,4971.0,225.0,0.0,0.0,0.0,43.999,-15.956,-993.17,0.304,-0.02
-317.0,-1.0,4972.0,225.0,0.0,0.0,0.0,44.514,-15.876,-993.16,0.397,-0.1
-316.0,-1.0,4973.0,225.0,0.0,0.0,0.0,44.328,-15.71,-993.16,0.33,-0.04
-316.0,-1.0,4973.0,225.0,0.0,0.0,0.0,44.376,-15.479,-993.16,0.341,-0.11
-315.0,-1.0,4974.0,225.0,0.0,0.0,0.0,44.313,-15.222,-993.16,0.291,-0.11
-315.0,-1.0,4975.0,225.0,0.0,0.0,0.0,44.297,-15.01,-993.16,0.309,-0.07
-314.0,-2.0,4976.0,225.0,0.0,0.0,0.0,44.159,-14.793,-990.77,0.196,-0.08
-315.0,-3.0,4977.0,225.0,0.0,0.0,0.0,41.762,-14.746,-990.87,0.233,-0.23
-316.0,-4.0,4978.0,225.0,0.0,0.0,0.0,39.543,-14.901,-993.84,0.015,-0.18
-317.0,-5.0,4978.0,225.0,0.0,0.0,0.0,40.134,-15.043,-993.54,0.151,-0.24
-317.0,-6.0,4979.0,225.0,0.0,0.0,0.0,42.844,-15.242,-993.02,0.237,-0.16
-316.0,-6.0,4980.0,225.0,0.0,0.0,0.0,45.065,-15.47,-993.19,0.231,-0.15
-317.0,-6.0,4981.0,225.0,0.0,0.0,0.0,42.289,-15.693,-995.58,0.453,-0.33
-319.0,-6.0,4981.0,225.0,0.0,0.0,0.0,39.777,-15.844,-997.99,0.284,-0.28
-320.0,-6.0,4982.0,225.0,0.0,0.0,0.0,40.554,-15.823,-997.36,0.341,-0.33
-320.0,-6.0,4983.0,225.0,0.0,0.0,0.0,40.804,-15.726,-997.06,0.172,-0.12
-320.0,-8.0,4983.0,225.0,0.0,0.0,0.0,40.581,-15.512,-994.85,0.059,-0.01
-320.0,-10.0,4984.0,225.0,0.0,0.0,0.0,40.6,-15.389,-994.85,-0.065,-0.04
-319.0,-11.0,4985.0,225.0,0.0,0.0,0.0,40.637,-17.776,-997.74,0.005,-0.06
-320.0,-11.0,4986.0,225.0,0.0,0.0,0.0,40.539,-20.078,-997.4,0.155,-0.14
-320.0,-11.0,4987.0,225.0,0.0,0.0,0.0,40.33,-17.143,-994.6,0.306,-0.11
-321.0,-11.0,4988.0,225.0,0.0,0.0,0.0,40.18,-14.591,-992.53,0.434,-0.2
-321.0,-11.0,4989.0,225.0,0.0,0.0,0.0,42.512,-15.458,-993.0,0.335,-0.17
-321.0,-11.0,4990.0,225.0,0.0,0.0,0.0,44.918,-15.834,-995.68,0.322,-0.24
-321.0,-11.0,4991.0,225.0,0.0,0.0,0.0,44.458,-15.659,-997.83,0.284,-0.3
-322.0,-11.0,4991.0,225.0,0.0,0.0,0.0,44.148,-15.439,-994.91,0.313,-0.25
-323.0,-11.0,4992.0,225.0,0.0,0.0,0.0,44.418,-15.304,-994.65,0.343,-0.49
-324.0,-11.0,4992.0,225.0,0.0,0.0,0.0,44.508,-15.256,-995.37,0.329,-0.35
-325.0,-12.0,4993.0,225.0,0.0,0.0,0.0,42.232,-15.172,-995.13,0.17,-0.26
-325.0,-12.0,4994.0,225.0,0.0,0.0,0.0,40.051,-15.264,-997.63,0.224,-0.14
-324.0,-13.0,4995.0,225.0,0.0,0.0,0.0,40.604,-15.244,-995.15,0.161,0.03
-324.0,-14.0,4996.0,225.0,0.0,0.0,0.0,40.783,-15.235,-992.29,0.247,-0.06
-325.0,-13.0,4997.0,225.0,0.0,0.0,0.0,40.533,-15.377,-993.12,0.399,-0.23
-326.0,-14.0,4997.0,225.0,0.0,0.0,0.0,40.424,-15.487,-993.33,0.159,-0.21
-327.0,-14.0,4998.0,225.0,0.0,0.0,0.0,40.318,-15.631,-995.6,0.278,-0.25
-327.0,-15.0,4999.0,225.0,0.0,0.0,0.0,40.216,-15.642,-995.56,0.141,-0.14
-327.0,-16.0,5000.0,225.0,0.0,0.0,0.0,40.067,-15.511,-992.64,0.212,-0.14
-329.0,-15.0,5001.0,225.0,0.0,0.0,0.0,40.113,-15.484,-992.94,0.413,-0.34
-330.0,-16.0,5002.0,225.0,0.0,0.0,0.0,40.288,-15.55,-995.79,0.315,-0.28
-331.0,-15.0,5003.0,225.0,0.0,0.0,0.0,40.37,-15.502,-995.53,0.368,-0.33
-331.0,-15.0,5004.0,225.0,0.0,0.0,0.0,40.379,-15.348,-992.66,0.302,-0.12
-332.0,-16.0,5004.0,225.0,0.0,0.0,0.0,40.483,-15.299,-992.91,0.14,-0.15
-332.0,-17.0,5005.0,225.0,0.0,0.0,0.0,42.86,-15.204,-990.98,0.24,-0.13
-333.0,-18.0,5006.0,225.0,0.0,0.0,0.0,42.812,-15.179,-990.81,0.031,-0.36
-334.0,-19.0,5007.0,225.0,0.0,0.0,0.0,39.964,-15.286,-993.84,0.145,-0.3
-334.0,-20.0,5008.0,225.0,0.0,0.0,0.0,40.168,-15.348,-993.53,0.238,-0.19
-334.0,-20.0,5009.0,225.0,0.0,0.0,0.0,42.946,-15.453,-993.03,0.226,-0.15
-334.0,-20.0,5010.0,225.0,0.0,0.0,0.0,45.029,-15.569,-993.19,0.447,-0.09
-334.0,-20.0,5011.0,225.0,0.0,0.0,0.0,44.476,-15.611,-993.14,0.286,-0.22
-334.0,-20.0,5012.0,225.0,0.0,0.0,0.0,44.122,-15.595,-993.18,0.34,-0.22
-334.0,-19.0,5012.0,225.0,0.0,0.0,0.0,44.282,-17.868,-993.1,0.313,-0.31
-335.0,-19.0,5013.0,225.0,0.0,0.0,0.0,44.193,-20.056,-993.07,0.297,-0.27
-335.0,-18.0,5014.0,225.0,0.0,0.0,0.0,44.215,-19.377,-993.08,0.331,-0.33
-336.0,-18.0,5015.0,225.0,0.0,0.0,0.0,44.258,-16.658,-993.13,0.332,-0.25
-335.0,-18.0,5016.0,225.0,0.0,0.0,0.0,44.337,-14.501,-993.18,0.312,-0.12
-335.0,-18.0,5017.0,225.0,0.0,0.0,0.0,42.093,-15.109,-995.6,0.32,-0.06
-335.0,-18.0,5018.0,225.0,0.0,0.0,0.0,39.876,-15.518,-997.97,0.321,-0.03
-335.0,-18.0,5019.0,225.0,0.0,0.0,0.0,40.43,-15.368,-997.37,0.318,-0.19
-336.0,-18.0,5020.0,225.0,0.0,0.0,0.0,40.659,-15.471,-997.06,0.322,-0.23
-337.0,-18.0,5020.0,225.0,0.0,0.0,0.0,40.488,-15.598,-999.62,0.32,-0.25
-337.0,-18.0,5021.0,225.0,0.0,0.0,0.0,40.46,-15.644,-999.52,0.318,-0.14
-337.0,-18.0,5022.0,225.0,0.0,0.0,0.0,40.332,-15.547,-996.61,0.32,-0.01
-337.0,-18.0,5023.0,225.0,0.0,0.0,0.0,40.38,-15.563,-996.87,0.32,-0.1
-337.0,-19.0,5024.0,225.0,0.0,0.0,0.0,40.419,-15.579,-997.36,0.175,-0.04
-336.0,-20.0,5025.0,225.0,0.0,0.0,0.0,42.815,-15.581,-997.1,0.08,-0.11
-337.0,-22.0,5026.0,225.0,0.0,0.0,0.0,45.146,-15.603,-997.11,0.066,-0.26
-336.0,-23.0,5027.0,225.0,0.0,0.0,0.0,44.472,-15.531,-994.71,0.085,-0.16
-337.0,-23.0,5028.0,225.0,0.0,0.0,0.0,44.096,-15.496,-992.41,0.319,-0.37
-337.0,-23.0,5028.0,225.0,0.0,0.0,0.0,44.311,-15.587,-992.98,0.379,-0.26
-337.0,-22.0,5029.0,225.0,0.0,0.0,0.0,46.707,-15.668,-993.24,0.356,-0.16
-337.0,-23.0,5030.0,225.0,0.0,0.0,0.0,46.744,-13.308,-993.12,0.35,-0.32
-336.0,-24.0,5031.0,225.0,0.0,0.0,0.0,43.888,-13.259,-993.22,0.12,-0.05
-337.0,-24.0,5032.0,225.0,0.0,0.0,0.0,41.91,-16.08,-995.58,0.207,-0.27
-337.0,-26.0,5033.0,225.0,0.0,0.0,0.0,40.15,-13.414,-998.02,0.042,-0.14
-337.0,-28.0,5034.0,225.0,0.0,0.0,0.0,40.475,-10.575,-997.47,0.153,-0.02
-337.0,-29.0,5035.0,225.0,0.0,0.0,0.0,40.742,-13.71,-997.09,0.233,-0.12
-337.0,-29.0,5036.0,225.0,0.0,0.0,0.0,40.453,-16.321,-997.22,0.226,-0.02
-337.0,-28.0,5036.0,225.0,0.0,0.0,0.0,40.445,-15.69,-997.18,0.442,-0.09
-337.0,-28.0,5037.0,225.0,0.0,0.0,0.0,42.717,-15.49,-997.16,0.283,-0.12
-336.0,-28.0,5038.0,225.0,0.0,0.0,0.0,45.0,-15.704,-997.09,0.342,-0.07
-336.0,-28.0,5039.0,225.0,0.0,0.0,0.0,44.391,-15.638,-997.12,0.312,-0.22
-337.0,-29.0,5040.0,225.0,0.0,0.0,0.0,44.026,-15.465,-994.73,0.149,-0.32
-337.0,-30.0,5041.0,225.0,0.0,0.0,0.0,44.178,-15.297,-992.39,0.235,-0.33
-338.0,-30.0,5042.0,225.0,0.0,0.0,0.0,44.241,-15.287,-992.98,0.172,-0.31
-337.0,-31.0,5043.0,225.0,0.0,0.0,0.0,44.378,-15.29,-993.29,0.235,-0.09
-337.0,-31.0,5043.0,225.0,0.0,0.0,0.0,44.474,-15.324,-993.12,0.25,-0.16
-337.0,-32.0,5044.0,225.0,0.0,0.0,0.0,44.573,-15.394,-993.16,0.207,-0.28
-338.0,-32.0,5045.0,225.0,0.0,0.0,0.0,44.59,-15.456,-993.15,0.21,-0.3
-339.0,-33.0,5045.0,225.0,0.0,0.0,0.0,44.548,-15.503,-993.17,0.223,-0.36
-338.0,-33.0,5046.0,225.0,0.0,0.0,0.0,44.486,-15.525,-993.16,0.361,-0.1
-337.0,-33.0,5047.0,225.0,0.0,0.0,0.0,44.423,-15.524,-993.16,0.317,-0.0
-336.0,-32.0,5048.0,225.0,0.0,0.0,0.0,44.37,-15.499,-993.16,0.381,-0.04
-335.0,-33.0,5049.0,225.0,0.0,0.0,0.0,46.683,-15.471,-993.11,0.147,-0.06
-334.0,-33.0,5049.0,225.0,0.0,0.0,0.0,46.533,-17.751,-993.07,0.192,-0.14
-334.0,-34.0,5050.0,225.0,0.0,0.0,0.0,43.617,-17.702,-995.52,0.173,-0.11
-333.0,-34.0,5051.0,225.0,0.0,0.0,0.0,43.91,-17.245,-997.86,0.25,-0.06
-333.0,-33.0,5052.0,225.0,0.0,0.0,0.0,44.323,-19.823,-997.21,0.247,-0.22
-333.0,-33.0,5053.0,225.0,0.0,0.0,0.0,44.121,-19.751,-996.91,0.209,-0.18
-334.0,-34.0,5054.0,225.0,0.0,0.0,0.0,44.242,-19.302,-997.08,0.062,-0.38
-334.0,-34.0,5055.0,225.0,0.0,0.0,0.0,44.3,-19.562,-997.04,0.124,-0.25
-335.0,-35.0,5056.0,225.0,0.0,0.0,0.0,44.457,-17.178,-997.09,0.06,-0.3
-335.0,-36.0,5057.0,225.0,0.0,0.0,0.0,44.57,-14.955,-997.12,0.147,-0.26
-335.0,-37.0,5057.0,225.0,0.0,0.0,0.0,44.589,-15.44,-994.73,0.151,-0.11
-335.0,-38.0,5058.0,225.0,0.0,0.0,0.0,44.579,-15.689,-992.39,0.104,-0.34
-335.0,-38.0,5059.0,225.0,0.0,0.0,0.0,44.6,-15.548,-992.98,0.256,-0.08
-336.0,-38.0,5061.0,225.0,0.0,0.0,0.0,44.395,-15.426,-990.73,0.421,-0.22
-336.0,-38.0,5062.0,225.0,0.0,0.0,0.0,41.933,-15.358,-990.87,0.294,-0.17
-337.0,-38.0,5063.0,225.0,0.0,0.0,0.0,41.918,-17.623,-991.35,0.349,-0.33
-336.0,-37.0,5064.0,225.0,0.0,0.0,0.0,44.758,-19.844,-991.04,0.302,-0.04
-337.0,-37.0,5065.0,225.0,0.0,0.0,0.0,44.55,-16.927,-993.54,0.295,-0.4
-337.0,-37.0,5065.0,225.0,0.0,0.0,0.0,44.068,-16.617,-993.48,0.329,-0.23
-337.0,-36.0,5066.0,225.0,0.0,0.0,0.0,44.251,-19.631,-992.89,0.327,-0.17
-338.0,-36.0,5067.0,225.0,0.0,0.0,0.0,44.24,-17.005,-993.19,0.312,-0.34
-337.0,-36.0,5068.0,225.0,0.0,0.0,0.0,44.309,-14.311,-993.15,0.318,-0.04
-338.0,-36.0,5069.0,225.0,0.0,0.0,0.0,44.3,-15.154,-993.18,0.316,-0.4
-338.0,-36.0,5070.0,225.0,0.0,0.0,0.0,44.329,-15.483,-993.15,0.316,-0.24
-339.0,-36.0,5071.0,225.0,0.0,0.0,0.0,44.335,-15.397,-993.16,0.32,-0.31
-340.0,-36.0,5072.0,225.0,0.0,0.0,0.0,44.33,-15.443,-993.17,0.317,-0.43
-340.0,-37.0,5072.0,225.0,0.0,0.0,0.0,44.347,-15.472,-993.16,0.171,-0.2
-340.0,-37.0,5073.0,225.0,0.0,0.0,0.0,44.448,-15.581,-995.55,0.222,-0.33
-340.0,-38.0,5074.0,225.0,0.0,0.0,0.0,44.472,-15.558,-995.5,0.158,-0.07
-339.0,-38.0,5075.0,225.0,0.0,0.0,0.0,44.468,-15.556,-994.96,0.241,-0.03
-338.0,-38.0,5076.0,225.0,0.0,0.0,0.0,44.459,-15.587,-995.19,0.393,-0.07
-337.0,-38.0,5077.0,225.0,0.0,0.0,0.0,44.397,-15.602,-995.13,0.3,-0.04
-337.0,-38.0,5078.0,225.0,0.0,0.0,0.0,44.382,-15.694,-997.53,0.369,-0.12
-336.0,-38.0,5079.0,225.0,0.0,0.0,0.0,44.274,-15.663,-997.48,0.295,-0.11
-335.0,-38.0,5080.0,225.0,0.0,0.0,0.0,44.08,-17.844,-994.49,0.283,-0.06
-335.0,-37.0,5080.0,225.0,0.0,0.0,0.0,44.04,-20.083,-994.76,0.333,-0.08
-334.0,-36.0,5081.0,225.0,0.0,0.0,0.0,44.071,-19.468,-995.21,0.326,-0.09
-334.0,-36.0,5082.0,225.0,0.0,0.0,0.0,44.051,-16.699,-992.69,0.311,-0.08
-334.0,-36.0,5083.0,225.0,0.0,0.0,0.0,44.136,-14.572,-992.82,0.319,-0.23
-334.0,-36.0,5084.0,225.0,0.0,0.0,0.0,44.227,-15.142,-993.33,0.313,-0.31
-335.0,-36.0,5085.0,225.0,0.0,0.0,0.0,44.283,-17.817,-993.06,0.314,-0.32
-336.0,-36.0,5086.0,225.0,0.0,0.0,0.0,44.357,-19.96,-993.09,0.175,-0.31
-335.0,-35.0,5087.0,225.0,0.0,0.0,0.0,44.45,-19.469,-993.06,0.221,-0.08
-335.0,-36.0,5088.0,225.0,0.0,0.0,0.0,44.549,-16.845,-993.15,0.156,-0.17
-334.0,-37.0,5088.0,225.0,0.0,0.0,0.0,44.686,-14.859,-995.56,0.241,-0.14
-335.0,-37.0,5089.0,225.0,0.0,0.0,0.0,42.371,-15.491,-997.93,0.246,-0.21
-335.0,-37.0,5090.0,225.0,0.0,0.0,0.0,39.945,-18.144,-997.34,0.205,-0.21
-335.0,-37.0,5090.0,225.0,0.0,0.0,0.0,40.407,-20.268,-996.97,0.21,-0.03
-335.0,-37.0,5091.0,225.0,0.0,0.0,0.0,40.714,-17.487,-999.59,0.218,-0.07
-335.0,-37.0,5092.0,225.0,0.0,0.0,0.0,40.474,-14.85,-999.54,0.358,-0.03
-335.0,-37.0,5093.0,225.0,0.0,0.0,0.0,40.351,-15.466,-996.61,0.316,-0.11
-335.0,-36.0,5093.0,225.0,0.0,0.0,0.0,42.674,-15.697,-996.83,0.378,-0.12
-335.0,-37.0,5094.0,225.0,0.0,0.0,0.0,45.003,-15.523,-997.28,0.289,-0.21
-335.0,-37.0,5095.0,225.0,0.0,0.0,0.0,44.402,-15.475,-997.07,0.285,-0.3
-336.0,-37.0,5096.0,225.0,0.0,0.0,0.0,41.771,-15.398,-997.17,0.329,-0.33
-338.0,-37.0,5097.0,225.0,0.0,0.0,0.0,39.707,-15.363,-997.19,0.323,-0.45
-339.0,-37.0,5098.0,225.0,0.0,0.0,0.0,40.363,-15.352,-997.21,0.169,-0.18
-339.0,-38.0,5099.0,225.0,0.0,0.0,0.0,40.809,-15.388,-997.18,0.223,-0.18
-340.0,-39.0,5100.0,225.0,0.0,0.0,0.0,38.359,-15.415,-997.23,0.152,-0.12
-340.0,-39.0,5101.0,225.0,0.0,0.0,0.0,36.147,-15.457,-997.28,0.238,0.01
-341.0,-39.0,5101.0,225.0,0.0,0.0,0.0,36.768,-15.628,-999.66,0.394,-0.15
-341.0,-39.0,5102.0,225.0,0.0,0.0,0.0,36.979,-15.696,-999.6,0.299,-0.05
-342.0,-38.0,5103.0,225.0,0.0,0.0,0.0,36.551,-15.621,-996.68,0.367,-0.08
-343.0,-39.0,5104.0,225.0,0.0,0.0,0.0,36.531,-15.704,-999.35,0.149,-0.11
-344.0,-40.0,5105.0,225.0,0.0,0.0,0.0,36.5,-15.751,-1002.16,0.187,-0.21
-345.0,-40.0,5106.0,225.0,0.0,0.0,0.0,36.349,-15.57,-998.97,0.173,-0.17
-346.0,-41.0,5107.0,225.0,0.0,0.0,0.0,38.631,-15.455,-996.33,0.249,-0.25
-346.0,-40.0,5108.0,225.0,0.0,0.0,0.0,41.046,-15.497,-997.02,0.385,-0.15
-346.0,-40.0,5109.0,225.0,0.0,0.0,0.0,40.581,-15.523,-997.33,0.301,-0.01
-346.0,-40.0,5109.0,225.0,0.0,0.0,0.0,42.664,-17.814,-994.67,0.364,-0.1
-344.0,-40.0,5110.0,225.0,0.0,0.0,0.0,45.166,-17.699,-992.32,0.291,-0.03
-344.0,-40.0,5111.0,225.0,0.0,0.0,0.0,44.608,-14.819,-992.99,0.285,-0.1
-344.0,-39.0,5112.0,225.0,0.0,0.0,0.0,44.21,-17.329,-990.87,0.331,-0.26
-344.0,-39.0,5113.0,225.0,0.0,0.0,0.0,44.304,-17.711,-990.73,0.323,-0.16
-344.0,-39.0,5114.0,225.0,0.0,0.0,0.0,44.248,-16.984,-991.33,0.31,-0.23
-344.0,-38.0,5115.0,225.0,0.0,0.0,0.0,44.13,-19.514,-988.65,0.317,-0.16
-343.0,-38.0,5116.0,225.0,0.0,0.0,0.0,44.121,-19.394,-988.78,0.311,-0.01
-342.0,-37.0,5117.0,225.0,0.0,0.0,0.0,44.264,-19.04,-991.69,0.313,-0.1
-341.0,-36.0,5117.0,225.0,0.0,0.0,0.0,44.35,-19.343,-993.8,0.318,-0.03
-341.0,-36.0,5118.0,225.0,0.0,0.0,0.0,41.952,-19.253,-993.33,0.169,-0.1
-342.0,-36.0,5119.0,225.0,0.0,0.0,0.0,41.969,-19.308,-992.98,0.218,-0.25
-342.0,-36.0,5120.0,225.0,0.0,0.0,0.0,44.842,-19.324,-993.13,0.156,-0.16
-342.0,-37.0,5121.0,226.0,0.0,0.0,0.0,44.548,-17.018,-993.12,0.238,-0.37
-343.0,-36.0,5122.0,226.0,0.0,0.0,0.0,44.095,-14.763,-993.18,0.39,-0.39
-344.0,-37.0,5123.0,226.0,0.0,0.0,0.0,44.35,-15.366,-993.16,0.153,-0.39
-346.0,-38.0,5124.0,226.0,0.0,0.0,0.0,44.377,-15.682,-993.16,0.127,-0.56
-346.0,-39.0,5125.0,226.0,0.0,0.0,0.0,44.51,-15.498,-993.16,0.039,-0.28
-346.0,-41.0,5125.0,226.0,0.0,0.0,0.0,44.584,-15.514,-993.16,0.047,-0.27
-345.0,-41.0,5126.0,226.0,0.0,0.0,0.0,47.053,-15.519,-993.12,0.33,-0.08
-344.0,-40.0,5127.0,226.0,0.0,0.0,0.0,47.015,-15.551,-993.12,0.383,0.01
-343.0,-40.0,5128.0,225.0,0.0,0.0,0.0,44.017,-17.873,-993.13,0.345,-0.09
-343.0,-39.0,5129.0,225.0,0.0,0.0,0.0,44.134,-20.155,-993.07,0.347,-0.21
-343.0,-39.0,5130.0,225.0,0.0,0.0,0.0,44.407,-19.518,-993.08,0.256,-0.2
-344.0,-39.0,5131.0,225.0,0.0,0.0,0.0,41.632,-19.092,-993.13,0.15,-0.25
-344.0,-38.0,5132.0,225.0,0.0,0.0,0.0,41.621,-19.17,-993.13,0.249,-0.14
-343.0,-39.0,5132.0,225.0,0.0,0.0,0.0,44.476,-19.106,-993.07,0.16,-0.0
-343.0,-38.0,5133.0,225.0,0.0,0.0,0.0,44.283,-19.123,-993.08,0.234,-0.25
-343.0,-38.0,5134.0,225.0,0.0,0.0,0.0,41.513,-19.137,-993.13,0.389,-0.12
-345.0,-37.0,5135.0,225.0,0.0,0.0,0.0,39.579,-19.298,-995.56,0.292,-0.4
-347.0,-37.0,5136.0,225.0,0.0,0.0,0.0,37.91,-19.433,-997.93,0.223,-0.42
-348.0,-38.0,5137.0,225.0,0.0,0.0,0.0,35.995,-17.078,-997.43,0.056,-0.24
-350.0,-39.0,5138.0,225.0,0.0,0.0,0.0,38.847,-14.808,-997.11,0.025,-0.32
-349.0,-41.0,5139.0,225.0,0.0,0.0,0.0,41.542,-15.33,-994.83,-0.051,-0.04
-349.0,-42.0,5140.0,225.0,0.0,0.0,0.0,38.456,-15.627,-994.89,0.228,-0.04
-350.0,-42.0,5140.0,225.0,0.0,0.0,0.0,35.886,-17.856,-995.44,0.209,-0.08
-351.0,-41.0,5141.0,225.0,0.0,0.0,0.0,36.524,-20.25,-995.14,0.276,-0.04
-352.0,-40.0,5142.0,225.0,0.0,0.0,0.0,39.054,-19.715,-995.17,0.417,-0.26
-352.0,-40.0,5143.0,225.0,0.0,0.0,0.0,40.979,-19.331,-992.73,0.24,-0.2
-353.0,-39.0,5144.0,225.0,0.0,0.0,0.0,40.225,-19.302,-990.4,0.353,-0.35
-355.0,-38.0,5145.0,225.0,0.0,0.0,0.0,39.903,-19.154,-991.02,0.318,-0.39
-356.0,-38.0,5146.0,225.0,0.0,0.0,0.0,40.206,-19.14,-993.68,0.283,-0.26
-358.0,-38.0,5147.0,225.0,0.0,0.0,0.0,40.244,-19.018,-993.49,0.182,-0.46
-358.0,-38.0,5147.0,225.0,0.0,0.0,0.0,40.386,-18.972,-992.97,0.227,-0.13
-358.0,-38.0,5148.0,225.0,0.0,0.0,0.0,40.516,-18.996,-993.21,0.144,-0.2
-359.0,-38.0,5149.0,225.0,0.0,0.0,0.0,43.007,-16.738,-993.15,0.242,-0.29
-358.0,-39.0,5150.0,225.0,0.0,0.0,0.0,42.991,-14.557,-993.22,0.244,-0.06
-360.0,-39.0,5151.0,225.0,0.0,0.0,0.0,42.404,-15.242,-993.19,0.198,-0.44
-360.0,-40.0,5152.0,225.0,0.0,0.0,0.0,44.913,-15.659,-993.15,0.21,-0.22
-359.0,-40.0,5153.0,225.0,0.0,0.0,0.0,44.616,-15.458,-990.77,0.216,-0.16
-360.0,-40.0,5154.0,225.0,0.0,0.0,0.0,43.937,-15.424,-988.44,0.354,-0.34
-360.0,-41.0,5155.0,225.0,0.0,0.0,0.0,44.209,-15.504,-991.41,0.169,-0.18
-361.0,-41.0,5155.0,225.0,0.0,0.0,0.0,44.207,-15.57,-994.06,0.28,-0.35
-362.0,-42.0,5156.0,225.0,0.0,0.0,0.0,41.858,-15.445,-993.34,0.127,-0.44
-362.0,-43.0,5157.0,225.0,0.0,0.0,0.0,41.901,-15.381,-993.08,0.206,-0.18
-363.0,-42.0,5158.0,225.0,0.0,0.0,0.0,44.88,-15.381,-993.18,0.401,-0.34
-363.0,-42.0,5159.0,225.0,0.0,0.0,0.0,42.278,-17.687,-993.16,0.304,-0.2
-363.0,-42.0,5159.0,225.0,0.0,0.0,0.0,39.523,-17.612,-993.21,0.219,-0.12
-364.0,-43.0,5160.0,225.0,0.0,0.0,0.0,40.358,-14.745,-993.24,0.198,-0.23
-364.0,-44.0,5160.0,225.0,0.0,0.0,0.0,40.585,-15.017,-993.24,0.116,-0.12
-364.0,-44.0,5161.0,225.0,0.0,0.0,0.0,42.759,-15.508,-993.19,0.251,-0.18
-364.0,-44.0,5162.0,225.0,0.0,0.0,0.0,45.02,-15.345,-993.14,0.401,-0.21
-364.0,-44.0,5163.0,225.0,0.0,0.0,0.0,44.374,-15.433,-993.16,0.291,-0.16
-363.0,-43.0,5164.0,225.0,0.0,0.0,0.0,43.964,-15.346,-990.77,0.366,-0.17
-364.0,-43.0,5165.0,225.0,0.0,0.0,0.0,44.006,-17.64,-988.39,0.288,-0.32
-365.0,-43.0,5166.0,225.0,0.0,0.0,0.0,41.698,-19.971,-991.37,0.277,-0.26
-366.0,-42.0,5167.0,225.0,0.0,0.0,0.0,39.445,-19.336,-991.68,0.332,-0.33
-367.0,-41.0,5168.0,225.0,0.0,0.0,0.0,39.975,-18.897,-988.58,0.322,-0.25
-367.0,-41.0,5169.0,225.0,0.0,0.0,0.0,40.385,-19.054,-988.89,0.305,-0.1
-367.0,-40.0,5169.0,225.0,0.0,0.0,0.0,40.379,-19.113,-991.75,0.315,-0.19
-368.0,-40.0,5170.0,225.0,0.0,0.0,0.0,40.528,-19.214,-993.89,0.309,-0.13
-367.0,-39.0,5171.0,225.0,0.0,0.0,0.0,40.494,-19.197,-993.34,0.31,-0.06
-367.0,-38.0,5172.0,225.0,0.0,0.0,0.0,40.446,-19.224,-993.01,0.316,-0.12
-368.0,-38.0,5173.0,225.0,0.0,0.0,0.0,40.357,-19.254,-993.22,0.312,-0.15
-368.0,-37.0,5174.0,225.0,0.0,0.0,0.0,42.645,-19.29,-993.11,0.31,-0.19
-368.0,-37.0,5175.0,225.0,0.0,0.0,0.0,44.914,-16.983,-993.12,0.312,-0.27
-367.0,-37.0,5176.0,225.0,0.0,0.0,0.0,46.68,-14.711,-993.12,0.312,-0.14
-366.0,-38.0,5177.0,225.0,0.0,0.0,0.0,46.337,-15.286,-993.13,0.167,-0.0
-366.0,-38.0,5177.0,225.0,0.0,0.0,0.0,43.731,-15.647,-995.56,0.217,-0.24
-366.0,-39.0,5178.0,225.0,0.0,0.0,0.0,44.029,-15.484,-995.5,0.153,-0.26
-367.0,-40.0,5179.0,225.0,0.0,0.0,0.0,44.463,-15.444,-992.57,0.236,-0.35
-368.0,-40.0,5179.0,225.0,0.0,0.0,0.0,41.908,-15.452,-992.9,0.242,-0.48
-370.0,-40.0,5180.0,225.0,0.0,0.0,0.0,39.717,-15.501,-993.42,0.2,-0.29
-370.0,-41.0,5181.0,225.0,0.0,0.0,0.0,40.329,-15.506,-993.19,0.205,-0.26
-372.0,-42.0,5182.0,225.0,0.0,0.0,0.0,40.734,-15.515,-993.24,0.214,-0.42
-372.0,-41.0,5183.0,225.0,0.0,0.0,0.0,40.601,-15.499,-993.22,0.354,-0.14
-373.0,-41.0,5183.0,225.0,0.0,0.0,0.0,40.653,-15.468,-993.25,0.311,-0.23
-373.0,-41.0,5184.0,225.0,0.0,0.0,0.0,42.988,-15.449,-993.19,0.373,-0.28
-372.0,-41.0,5185.0,225.0,0.0,0.0,0.0,45.166,-15.329,-990.75,0.284,-0.04
-372.0,-41.0,5186.0,225.0,0.0,0.0,0.0,44.387,-15.176,-988.44,0.28,-0.3
-372.0,-41.0,5187.0,225.0,0.0,0.0,0.0,46.372,-15.162,-988.98,0.324,-0.12
-370.0,-41.0,5188.0,225.0,0.0,0.0,0.0,48.781,-15.164,-989.24,0.319,-0.0
-369.0,-41.0,5189.0,225.0,0.0,0.0,0.0,45.704,-15.127,-989.13,0.309,-0.13
-369.0,-42.0,5190.0,225.0,0.0,0.0,0.0,45.429,-15.149,-989.18,0.313,-0.16
-368.0,-42.0,5191.0,225.0,0.0,0.0,0.0,48.472,-15.214,-989.11,0.306,-0.18
-367.0,-42.0,5191.0,225.0,0.0,0.0,0.0,48.172,-15.253,-989.13,0.309,-0.28
-367.0,-42.0,5192.0,225.0,0.0,0.0,0.0,47.747,-15.286,-989.13,0.314,-0.27
-366.0,-42.0,5193.0,225.0,0.0,0.0,0.0,48.011,-15.319,-989.13,0.311,-0.09
-366.0,-42.0,5194.0,225.0,0.0,0.0,0.0,45.776,-15.404,-991.57,0.31,-0.26
-366.0,-42.0,5195.0,225.0,0.0,0.0,0.0,43.651,-15.476,-993.94,0.166,-0.24
-365.0,-43.0,5196.0,225.0,0.0,0.0,0.0,44.248,-15.461,-993.34,0.215,-0.12
-366.0,-44.0,5197.0,226.0,0.0,0.0,0.0,44.596,-15.456,-993.03,0.152,-0.28
-365.0,-44.0,5198.0,226.0,0.0,0.0,0.0,42.044,-17.799,-993.2,0.235,-0.08
-366.0,-43.0,5198.0,226.0,0.0,0.0,0.0,39.718,-20.096,-993.16,0.386,-0.16
-367.0,-42.0,5199.0,226.0,0.0,0.0,0.0,40.257,-19.551,-993.17,0.294,-0.37
-368.0,-41.0,5200.0,226.0,0.0,0.0,0.0,40.526,-19.26,-993.15,0.363,-0.26
-370.0,-41.0,5201.0,226.0,0.0,0.0,0.0,37.925,-19.377,-993.21,0.289,-0.32
-371.0,-40.0,5202.0,226.0,0.0,0.0,0.0,35.639,-19.257,-993.25,0.277,-0.26
-371.0,-40.0,5203.0,226.0,0.0,0.0,0.0,38.612,-19.228,-993.19,0.326,-0.09
-372.0,-39.0,5204.0,225.0,0.0,0.0,0.0,41.289,-19.18,-993.14,0.32,-0.19
-372.0,-38.0,5205.0,225.0,0.0,0.0,0.0,40.549,-19.157,-993.16,0.305,-0.13
-371.0,-38.0,5206.0,225.0,0.0,0.0,0.0,42.584,-19.082,-990.73,0.312,-0.05
-371.0,-37.0,5206.0,225.0,0.0,0.0,0.0,42.581,-19.008,-988.39,0.307,-0.12
-370.0,-37.0,5207.0,225.0,0.0,0.0,0.0,41.996,-16.708,-989.03,0.308,-0.01
-370.0,-37.0,5208.0,225.0,0.0,0.0,0.0,44.553,-14.481,-989.34,0.314,-0.09
-369.0,-37.0,5209.0,225.0,0.0,0.0,0.0,44.343,-17.428,-989.11,0.31,-0.11
-368.0,-36.0,5210.0,225.0,0.0,0.0,0.0,46.161,-20.065,-989.07,0.309,-0.07
-368.0,-36.0,5211.0,225.0,0.0,0.0,0.0,46.313,-19.337,-989.07,0.31,-0.21
-368.0,-35.0,5212.0,225.0,0.0,0.0,0.0,43.354,-19.059,-989.15,0.31,-0.31
-369.0,-35.0,5213.0,225.0,0.0,0.0,0.0,43.745,-16.873,-989.17,0.31,-0.32
-370.0,-35.0,5214.0,225.0,0.0,0.0,0.0,44.282,-14.553,-989.21,0.31,-0.45
-370.0,-35.0,5214.0,225.0,0.0,0.0,0.0,44.194,-15.118,-989.21,0.31,-0.31
-371.0,-35.0,5215.0,225.0,0.0,0.0,0.0,44.379,-15.397,-989.2,0.31,-0.4
-373.0,-35.0,5216.0,225.0,0.0,0.0,0.0,44.446,-17.586,-989.16,0.31,-0.5
-373.0,-35.0,5217.0,225.0,0.0,0.0,0.0,44.628,-19.998,-991.5,0.165,-0.3
-374.0,-35.0,5218.0,226.0,0.0,0.0,0.0,42.351,-19.469,-993.89,0.215,-0.3
-374.0,-36.0,5218.0,226.0,0.0,0.0,0.0,40.008,-16.811,-993.4,0.006,-0.06
-373.0,-37.0,5219.0,226.0,0.0,0.0,0.0,40.614,-14.778,-995.51,0.139,0.02
-373.0,-37.0,5219.0,226.0,0.0,0.0,0.0,40.865,-15.46,-998.0,0.371,-0.09
-372.0,-37.0,5220.0,226.0,0.0,0.0,0.0,42.776,-18.093,-994.89,0.312,-0.07
-372.0,-35.0,5221.0,226.0,0.0,0.0,0.0,44.932,-17.909,-994.6,0.596,-0.11
-371.0,-35.0,5222.0,226.0,0.0,0.0,0.0,41.903,-15.17,-997.79,0.347,-0.1
-371.0,-35.0,5222.0,226.0,0.0,0.0,0.0,39.097,-15.234,-995.13,0.253,-0.06
-371.0,-35.0,5223.0,225.0,0.0,0.0,0.0,39.719,-15.492,-992.3,0.32,-0.07
-372.0,-35.0,5224.0,225.0,0.0,0.0,0.0,40.049,-17.522,-993.04,0.233,-0.23
-372.0,-34.0,5225.0,225.0,0.0,0.0,0.0,39.994,-19.8,-993.27,0.342,-0.17
-373.0,-33.0,5226.0,225.0,0.0,0.0,0.0,40.147,-19.182,-993.13,0.354,-0.23
-373.0,-33.0,5226.0,225.0,0.0,0.0,0.0,40.311,-16.61,-993.19,0.284,-0.15
-373.0,-34.0,5227.0,225.0,0.0,0.0,0.0,40.473,-14.542,-993.24,0.3,-0.0
-374.0,-34.0,5228.0,225.0,0.0,0.0,0.0,40.554,-15.153,-993.25,0.17,-0.24
-374.0,-35.0,5229.0,225.0,0.0,0.0,0.0,38.231,-15.513,-993.27,0.21,-0.12
-375.0,-37.0,5230.0,225.0,0.0,0.0,0.0,38.279,-15.38,-993.28,0.011,-0.25
-375.0,-37.0,5231.0,225.0,0.0,0.0,0.0,41.134,-15.515,-993.23,0.14,-0.18
-375.0,-37.0,5232.0,225.0,0.0,0.0,0.0,40.863,-17.983,-995.57,0.22,0.0
-375.0,-37.0,5233.0,225.0,0.0,0.0,0.0,40.402,-20.417,-997.87,0.217,-0.08
-374.0,-36.0,5233.0,225.0,0.0,0.0,0.0,40.473,-19.751,-994.9,0.438,-0.03
-374.0,-35.0,5234.0,225.0,0.0,0.0,0.0,40.271,-21.688,-992.22,0.27,-0.1
-374.0,-34.0,5235.0,225.0,0.0,0.0,0.0,40.257,-24.115,-992.93,0.328,-0.11
-374.0,-33.0,5236.0,225.0,0.0,0.0,0.0,42.661,-21.157,-995.59,0.303,-0.06
-373.0,-32.0,5237.0,225.0,0.0,0.0,0.0,45.065,-18.553,-997.78,0.285,-0.07
-372.0,-32.0,5238.0,225.0,0.0,0.0,0.0,44.463,-19.152,-997.21,0.32,-0.08
-372.0,-32.0,5239.0,225.0,0.0,0.0,0.0,44.165,-19.348,-996.91,0.176,-0.08
-371.0,-32.0,5240.0,225.0,0.0,0.0,0.0,44.394,-16.838,-997.14,0.205,-0.08
-371.0,-33.0,5241.0,225.0,0.0,0.0,0.0,44.397,-14.598,-997.12,0.15,-0.22
-371.0,-34.0,5241.0,225.0,0.0,0.0,0.0,44.439,-15.259,-997.13,0.233,-0.31
-372.0,-34.0,5242.0,225.0,0.0,0.0,0.0,44.457,-15.671,-997.11,0.237,-0.32
-372.0,-35.0,5243.0,225.0,0.0,0.0,0.0,44.522,-15.585,-997.12,0.199,-0.31
-371.0,-35.0,5244.0,225.0,0.0,0.0,0.0,44.585,-15.707,-997.12,0.202,-0.08
-371.0,-36.0,5245.0,225.0,0.0,0.0,0.0,44.637,-18.079,-997.07,0.064,-0.16
-370.0,-36.0,5246.0,225.0,0.0,0.0,0.0,44.684,-18.039,-997.07,0.256,-0.13
-370.0,-37.0,5247.0,225.0,0.0,0.0,0.0,44.691,-15.135,-997.13,0.15,-0.2
-371.0,-37.0,5248.0,225.0,0.0,0.0,0.0,44.627,-15.387,-997.12,0.294,-0.34
-370.0,-36.0,5249.0,225.0,0.0,0.0,0.0,44.523,-18.17,-997.07,0.357,-0.11
-370.0,-36.0,5249.0,225.0,0.0,0.0,0.0,44.431,-20.207,-997.03,0.261,-0.22
-369.0,-35.0,5250.0,225.0,0.0,0.0,0.0,44.382,-19.626,-997.04,0.373,-0.1
-369.0,-34.0,5251.0,225.0,0.0,0.0,0.0,44.279,-19.145,-994.65,0.294,-0.17
-369.0,-34.0,5252.0,225.0,0.0,0.0,0.0,46.563,-19.218,-992.27,0.273,-0.22
-368.0,-34.0,5253.0,225.0,0.0,0.0,0.0,48.899,-19.156,-992.82,0.181,-0.31
-368.0,-34.0,5254.0,225.0,0.0,0.0,0.0,48.328,-19.154,-993.13,0.218,-0.25
-368.0,-35.0,5255.0,225.0,0.0,0.0,0.0,48.04,-19.158,-992.97,-0.003,-0.33
-368.0,-35.0,5256.0,225.0,0.0,0.0,0.0,48.253,-19.232,-993.01,0.143,-0.38
-368.0,-35.0,5256.0,225.0,0.0,0.0,0.0,45.893,-19.302,-993.05,0.221,-0.33
-370.0,-35.0,5257.0,225.0,0.0,0.0,0.0,43.647,-19.387,-993.11,0.213,-0.44
-370.0,-34.0,5258.0,225.0,0.0,0.0,0.0,44.353,-19.575,-995.47,0.44,-0.35
-370.0,-33.0,5259.0,225.0,0.0,0.0,0.0,42.42,-19.683,-997.85,0.269,-0.19
-371.0,-33.0,5260.0,225.0,0.0,0.0,0.0,42.225,-19.55,-994.88,0.181,-0.29
-372.0,-33.0,5261.0,225.0,0.0,0.0,0.0,42.772,-19.462,-994.61,0.208,-0.35
-373.0,-33.0,5262.0,225.0,0.0,0.0,0.0,40.132,-19.357,-995.36,0.125,-0.24
-374.0,-33.0,5263.0,225.0,0.0,0.0,0.0,42.466,-19.198,-992.66,0.242,-0.37
-373.0,-32.0,5264.0,225.0,0.0,0.0,0.0,45.134,-19.102,-990.33,0.395,-0.17
-373.0,-33.0,5264.0,225.0,0.0,0.0,0.0,44.205,-19.032,-988.52,0.137,-0.11
-373.0,-33.0,5265.0,225.0,0.0,0.0,0.0,44.038,-16.809,-991.34,0.265,-0.22
-372.0,-34.0,5266.0,225.0,0.0,0.0,0.0,44.151,-14.553,-991.7,0.128,-0.11
-371.0,-34.0,5267.0,225.0,0.0,0.0,0.0,44.007,-15.041,-988.55,0.196,-0.05
-370.0,-34.0,5268.0,225.0,0.0,0.0,0.0,46.364,-15.405,-988.87,0.401,-0.12
-369.0,-34.0,5269.0,225.0,0.0,0.0,0.0,48.659,-15.306,-989.28,0.301,-0.14
-369.0,-35.0,5270.0,225.0,0.0,0.0,0.0,48.079,-15.354,-989.09,0.208,-0.19
-369.0,-35.0,5271.0,225.0,0.0,0.0,0.0,45.397,-15.312,-989.19,0.193,-0.41
-370.0,-36.0,5272.0,225.0,0.0,0.0,0.0,43.272,-15.279,-989.2,0.112,-0.22
-369.0,-37.0,5272.0,225.0,0.0,0.0,0.0,43.967,-15.334,-991.61,0.245,-0.15
-369.0,-36.0,5273.0,225.0,0.0,0.0,0.0,44.441,-17.769,-993.88,0.396,-0.17
-368.0,-36.0,5274.0,225.0,0.0,0.0,0.0,44.333,-17.715,-993.29,0.285,-0.09
-368.0,-36.0,5275.0,225.0,0.0,0.0,0.0,44.462,-14.847,-993.05,0.36,-0.21
-369.0,-36.0,5276.0,225.0,0.0,0.0,0.0,44.543,-15.213,-995.6,0.283,-0.35
-370.0,-36.0,5277.0,225.0,0.0,0.0,0.0,42.224,-15.713,-997.92,0.271,-0.38
-371.0,-36.0,5278.0,225.0,0.0,0.0,0.0,39.833,-15.422,-997.39,0.326,-0.27
-372.0,-36.0,5279.0,225.0,0.0,0.0,0.0,42.762,-15.461,-997.01,0.317,-0.31
-370.0,-36.0,5280.0,225.0,0.0,0.0,0.0,45.407,-15.452,-997.15,0.3,-0.01
-369.0,-36.0,5280.0,225.0,0.0,0.0,0.0,44.589,-15.393,-994.72,0.309,-0.05
-369.0,-36.0,5281.0,225.0,0.0,0.0,0.0,44.253,-15.306,-992.4,0.303,-0.07
-368.0,-37.0,5282.0,225.0,0.0,0.0,0.0,44.387,-15.35,-992.97,0.159,-0.17
-369.0,-38.0,5283.0,225.0,0.0,0.0,0.0,44.208,-15.31,-990.9,0.216,-0.35
-370.0,-38.0,5284.0,225.0,0.0,0.0,0.0,44.03,-15.247,-988.39,0.147,-0.34
-371.0,-40.0,5285.0,225.0,0.0,0.0,0.0,44.064,-15.401,-991.41,0.084,-0.42
-370.0,-39.0,5286.0,225.0,0.0,0.0,0.0,44.095,-17.806,-991.61,0.287,-0.17
-370.0,-40.0,5287.0,225.0,0.0,0.0,0.0,44.058,-20.037,-988.49,0.131,-0.18
-370.0,-39.0,5287.0,225.0,0.0,0.0,0.0,44.26,-19.593,-991.2,0.283,-0.11
-369.0,-38.0,5288.0,225.0,0.0,0.0,0.0,42.072,-19.381,-994.06,0.36,0.01
-369.0,-38.0,5289.0,225.0,0.0,0.0,0.0,39.828,-19.559,-995.71,0.256,-0.14
-369.0,-37.0,5290.0,225.0,0.0,0.0,0.0,40.44,-19.536,-997.76,0.375,-0.04
-369.0,-36.0,5291.0,225.0,0.0,0.0,0.0,38.263,-19.425,-997.36,0.294,-0.07
-370.0,-36.0,5292.0,225.0,0.0,0.0,0.0,38.028,-19.302,-997.05,0.268,-0.25
-370.0,-35.0,5293.0,225.0,0.0,0.0,0.0,40.894,-19.273,-997.15,0.324,-0.15
-371.0,-35.0,5294.0,225.0,0.0,0.0,0.0,40.478,-19.133,-994.7,0.312,-0.22
-371.0,-34.0,5295.0,225.0,0.0,0.0,0.0,40.041,-19.121,-994.8,0.299,-0.16
-371.0,-34.0,5295.0,225.0,0.0,0.0,0.0,40.335,-16.824,-995.35,0.312,-0.0
-372.0,-35.0,5296.0,225.0,0.0,0.0,0.0,40.301,-14.48,-992.79,0.158,-0.23
-372.0,-36.0,5297.0,225.0,0.0,0.0,0.0,40.413,-15.116,-992.89,0.062,-0.12
-372.0,-38.0,5298.0,225.0,0.0,0.0,0.0,40.441,-15.497,-993.4,0.056,-0.25
-373.0,-40.0,5299.0,225.0,0.0,0.0,0.0,40.472,-15.396,-993.18,-0.074,-0.18
-372.0,-40.0,5300.0,225.0,0.0,0.0,0.0,40.479,-15.532,-993.25,0.209,0.0
-372.0,-41.0,5301.0,225.0,0.0,0.0,0.0,40.464,-15.616,-993.21,0.207,-0.08
-372.0,-41.0,5302.0,225.0,0.0,0.0,0.0,40.452,-15.71,-993.25,0.265,-0.03
-372.0,-40.0,5303.0,225.0,0.0,0.0,0.0,40.396,-18.06,-993.19,0.412,-0.1
-372.0,-40.0,5303.0,225.0,0.0,0.0,0.0,40.323,-20.3,-993.14,0.235,-0.11
-371.0,-39.0,5304.0,225.0,0.0,0.0,0.0,42.644,-19.625,-993.11,0.341,-0.06
-370.0,-39.0,5305.0,225.0,0.0,0.0,0.0,44.94,-16.836,-993.12,0.309,-0.06
-370.0,-40.0,5306.0,225.0,0.0,0.0,0.0,44.355,-14.553,-993.17,0.132,-0.08
-369.0,-40.0,5307.0,225.0,0.0,0.0,0.0,44.059,-14.975,-993.17,0.223,-0.08
-368.0,-42.0,5308.0,225.0,0.0,0.0,0.0,44.253,-15.244,-993.16,0.01,-0.08
-368.0,-43.0,5309.0,225.0,0.0,0.0,0.0,44.244,-15.091,-993.16,0.124,-0.08
-367.0,-43.0,5310.0,225.0,0.0,0.0,0.0,44.289,-15.248,-993.16,0.226,-0.07
-367.0,-44.0,5311.0,225.0,0.0,0.0,0.0,41.926,-15.352,-993.21,0.068,-0.08
-367.0,-44.0,5311.0,225.0,0.0,0.0,0.0,39.641,-15.482,-993.25,0.335,-0.08
-367.0,-45.0,5312.0,225.0,0.0,0.0,0.0,40.235,-15.575,-993.24,0.111,-0.22
-368.0,-46.0,5313.0,225.0,0.0,0.0,0.0,40.526,-17.965,-993.19,0.104,-0.31
-369.0,-45.0,5313.0,225.0,0.0,0.0,0.0,40.355,-20.241,-993.14,0.278,-0.32
-370.0,-46.0,5314.0,225.0,0.0,0.0,0.0,40.427,-19.605,-993.15,0.107,-0.3
-371.0,-45.0,5315.0,225.0,0.0,0.0,0.0,40.483,-16.891,-993.21,0.292,-0.22
-372.0,-45.0,5315.0,225.0,0.0,0.0,0.0,40.579,-14.697,-993.25,0.37,-0.25
-372.0,-46.0,5316.0,225.0,0.0,0.0,0.0,43.069,-15.279,-995.58,0.247,-0.29
-372.0,-45.0,5316.0,225.0,0.0,0.0,0.0,45.41,-15.552,-995.48,0.373,-0.27
-372.0,-45.0,5317.0,225.0,0.0,0.0,0.0,44.715,-15.202,-992.57,0.293,-0.13
-371.0,-46.0,5318.0,225.0,0.0,0.0,0.0,44.448,-15.31,-995.25,0.264,-0.03
-370.0,-46.0,5319.0,225.0,0.0,0.0,0.0,42.266,-15.356,-998.1,0.325,-0.02
-370.0,-46.0,5320.0,225.0,0.0,0.0,0.0,39.782,-15.322,-997.34,0.311,-0.04
-371.0,-46.0,5321.0,225.0,0.0,0.0,0.0,40.334,-15.425,-999.47,0.296,-0.27
-371.0,-46.0,5322.0,225.0,0.0,0.0,0.0,40.591,-15.565,-1001.94,0.311,-0.18
-372.0,-46.0,5323.0,225.0,0.0,0.0,0.0,40.342,-15.597,-1001.34,0.301,-0.35
-374.0,-46.0,5323.0,225.0,0.0,0.0,0.0,40.365,-15.63,-1001.02,0.301,-0.37
-375.0,-46.0,5324.0,225.0,0.0,0.0,0.0,40.425,-15.674,-1001.18,0.309,-0.39
-377.0,-46.0,5325.0,225.0,0.0,0.0,0.0,40.574,-15.699,-1001.15,0.304,-0.41
-377.0,-46.0,5326.0,225.0,0.0,0.0,0.0,40.638,-15.624,-998.76,0.302,-0.18
-377.0,-46.0,5327.0,225.0,0.0,0.0,0.0,40.713,-15.539,-996.41,0.305,-0.11
-377.0,-46.0,5328.0,225.0,0.0,0.0,0.0,40.756,-15.467,-994.63,0.304,-0.14
-377.0,-45.0,5329.0,225.0,0.0,0.0,0.0,40.683,-17.728,-992.55,0.304,-0.14
-378.0,-45.0,5330.0,225.0,0.0,0.0,0.0,40.525,-19.937,-990.53,0.304,-0.22
-378.0,-45.0,5330.0,225.0,0.0,0.0,0.0,40.414,-17.017,-991.0,0.304,-0.19
-378.0,-45.0,5331.0,225.0,0.0,0.0,0.0,40.366,-14.516,-993.79,0.304,-0.01
-378.0,-45.0,5332.0,225.0,0.0,0.0,0.0,40.232,-15.249,-993.56,0.304,-0.07
-378.0,-45.0,5333.0,225.0,0.0,0.0,0.0,40.137,-15.489,-993.05,0.304,-0.16
-379.0,-46.0,5334.0,225.0,0.0,0.0,0.0,42.483,-15.365,-993.24,0.159,-0.33
-379.0,-46.0,5334.0,225.0,0.0,0.0,0.0,44.789,-17.76,-993.09,0.209,-0.36
-380.0,-46.0,5335.0,225.0,0.0,0.0,0.0,44.24,-20.066,-993.08,0.145,-0.43
-381.0,-46.0,5335.0,225.0,0.0,0.0,0.0,41.681,-17.158,-993.16,0.228,-0.16
-381.0,-46.0,5336.0,225.0,0.0,0.0,0.0,42.062,-14.589,-993.22,0.379,-0.31
-381.0,-47.0,5337.0,225.0,0.0,0.0,0.0,44.983,-15.318,-990.77,0.142,-0.2
-381.0,-47.0,5338.0,225.0,0.0,0.0,0.0,44.73,-15.507,-988.42,0.261,-0.13
-382.0,-48.0,5339.0,225.0,0.0,0.0,0.0,41.992,-15.414,-991.46,0.123,-0.36
-381.0,-48.0,5340.0,225.0,0.0,0.0,0.0,39.946,-15.486,-994.14,0.194,-0.06
-382.0,-49.0,5341.0,225.0,0.0,0.0,0.0,40.365,-15.436,-993.37,0.25,-0.24
-382.0,-49.0,5342.0,225.0,0.0,0.0,0.0,40.582,-15.424,-993.11,0.202,-0.13
-382.0,-50.0,5343.0,225.0,0.0,0.0,0.0,40.369,-15.488,-995.66,0.192,-0.01
-382.0,-50.0,5344.0,225.0,0.0,0.0,0.0,40.407,-17.917,-997.92,0.208,-0.11
-381.0,-49.0,5344.0,225.0,0.0,0.0,0.0,40.302,-20.184,-997.28,0.342,-0.02
-382.0,-48.0,5345.0,225.0,0.0,0.0,0.0,40.262,-19.584,-996.97,0.301,-0.22
-382.0,-48.0,5346.0,225.0,0.0,0.0,0.0,40.24,-19.279,-997.17,0.369,-0.2
-384.0,-47.0,5347.0,225.0,0.0,0.0,0.0,40.25,-19.418,-997.11,0.276,-0.35
-384.0,-47.0,5348.0,225.0,0.0,0.0,0.0,40.306,-19.337,-997.12,0.271,-0.23
-385.0,-47.0,5349.0,225.0,0.0,0.0,0.0,40.397,-19.307,-997.1,0.171,-0.16
-385.0,-47.0,5350.0,225.0,0.0,0.0,0.0,40.516,-19.267,-997.12,0.216,-0.16
-384.0,-47.0,5351.0,225.0,0.0,0.0,0.0,42.932,-16.879,-994.73,0.143,0.04
-383.0,-48.0,5352.0,225.0,0.0,0.0,0.0,42.873,-14.541,-992.43,0.23,-0.11
-383.0,-48.0,5352.0,225.0,0.0,0.0,0.0,39.976,-15.177,-993.07,0.228,-0.05
-383.0,-49.0,5353.0,225.0,0.0,0.0,0.0,40.275,-15.654,-995.75,0.19,-0.08
-383.0,-49.0,5354.0,225.0,0.0,0.0,0.0,43.013,-15.56,-995.48,0.2,-0.24
-383.0,-50.0,5355.0,225.0,0.0,0.0,0.0,44.925,-15.546,-992.56,0.06,-0.16
-383.0,-51.0,5356.0,225.0,0.0,0.0,0.0,44.338,-15.543,-992.84,0.249,-0.36
-384.0,-52.0,5357.0,225.0,0.0,0.0,0.0,44.013,-15.563,-993.34,0.144,-0.25
-383.0,-52.0,5358.0,225.0,0.0,0.0,0.0,44.257,-15.524,-993.11,0.288,-0.15
-383.0,-52.0,5359.0,225.0,0.0,0.0,0.0,44.369,-15.592,-995.56,0.206,-0.16
-382.0,-53.0,5360.0,225.0,0.0,0.0,0.0,44.473,-15.56,-995.48,0.161,-0.09
-383.0,-54.0,5360.0,225.0,0.0,0.0,0.0,44.434,-15.41,-992.58,0.064,-0.34
-384.0,-55.0,5361.0,225.0,0.0,0.0,0.0,44.47,-15.385,-992.85,0.117,-0.44
-385.0,-56.0,5362.0,225.0,0.0,0.0,0.0,44.466,-15.387,-993.33,0.184,-0.4
-385.0,-56.0,5363.0,225.0,0.0,0.0,0.0,44.358,-15.307,-990.73,0.228,-0.25
-384.0,-56.0,5364.0,225.0,0.0,0.0,0.0,41.981,-17.665,-990.83,0.29,-0.08
-383.0,-56.0,5365.0,225.0,0.0,0.0,0.0,42.055,-20.001,-991.29,0.162,0.04
-382.0,-57.0,5366.0,225.0,0.0,0.0,0.0,44.873,-19.356,-988.67,0.023,-0.07
-382.0,-57.0,5367.0,225.0,0.0,0.0,0.0,44.536,-19.036,-988.77,0.123,-0.22
-382.0,-57.0,5368.0,225.0,0.0,0.0,0.0,43.967,-19.199,-989.3,0.192,-0.2
-382.0,-57.0,5368.0,225.0,0.0,0.0,0.0,44.051,-19.152,-989.08,0.225,-0.24
-382.0,-56.0,5369.0,225.0,0.0,0.0,0.0,43.933,-16.836,-989.19,0.441,-0.13
-382.0,-56.0,5370.0,225.0,0.0,0.0,0.0,41.584,-14.513,-989.24,0.254,-0.13
-382.0,-56.0,5371.0,225.0,0.0,0.0,0.0,39.35,-15.153,-991.7,0.322,-0.19
-382.0,-57.0,5372.0,225.0,0.0,0.0,0.0,42.393,-15.425,-991.57,0.151,-0.18
-383.0,-58.0,5373.0,225.0,0.0,0.0,0.0,44.997,-15.109,-988.59,0.181,-0.31
-382.0,-58.0,5374.0,225.0,0.0,0.0,0.0,44.309,-15.113,-988.9,0.157,-0.12
-382.0,-59.0,5375.0,225.0,0.0,0.0,0.0,44.122,-15.113,-989.38,0.238,-0.22
-382.0,-59.0,5376.0,225.0,0.0,0.0,0.0,44.313,-15.165,-989.16,0.222,-0.23
-382.0,-61.0,5376.0,225.0,0.0,0.0,0.0,46.682,-15.242,-989.17,0.046,-0.26
-382.0,-62.0,5377.0,225.0,0.0,0.0,0.0,48.998,-15.335,-989.1,0.101,-0.36
-381.0,-63.0,5378.0,225.0,0.0,0.0,0.0,48.387,-15.394,-989.14,0.043,-0.24
-380.0,-63.0,5379.0,225.0,0.0,0.0,0.0,48.092,-15.439,-989.13,0.27,-0.09
-379.0,-63.0,5380.0,225.0,0.0,0.0,0.0,45.875,-15.462,-989.17,0.377,-0.05
-378.0,-62.0,5381.0,225.0,0.0,0.0,0.0,43.573,-15.543,-991.61,0.345,-0.02
-378.0,-62.0,5382.0,225.0,0.0,0.0,0.0,44.205,-15.6,-993.93,0.327,-0.18
-377.0,-63.0,5383.0,225.0,0.0,0.0,0.0,44.393,-15.494,-993.34,0.249,-0.22
-378.0,-63.0,5384.0,225.0,0.0,0.0,0.0,44.144,-15.361,-993.03,0.281,-0.24
-377.0,-63.0,5384.0,225.0,0.0,0.0,0.0,44.136,-15.256,-993.2,0.325,-0.12
-377.0,-63.0,5385.0,225.0,0.0,0.0,0.0,41.757,-12.816,-993.25,0.309,-0.14
-378.0,-64.0,5386.0,225.0,0.0,0.0,0.0,39.513,-10.482,-993.35,0.298,-0.18
-378.0,-65.0,5387.0,225.0,0.0,0.0,0.0,40.141,-11.088,-993.31,0.299,-0.18
-379.0,-65.0,5388.0,225.0,0.0,0.0,0.0,40.493,-13.788,-993.26,0.296,-0.31
-379.0,-65.0,5389.0,225.0,0.0,0.0,0.0,40.365,-15.976,-993.22,0.157,-0.12
-380.0,-66.0,5390.0,225.0,0.0,0.0,0.0,40.446,-15.507,-993.23,0.209,-0.22
-380.0,-67.0,5391.0,225.0,0.0,0.0,0.0,40.468,-15.261,-993.24,0.141,-0.23
-381.0,-68.0,5392.0,225.0,0.0,0.0,0.0,40.498,-15.508,-993.23,0.078,-0.26
-382.0,-68.0,5392.0,225.0,0.0,0.0,0.0,42.855,-15.531,-993.19,0.281,-0.36
-382.0,-69.0,5393.0,225.0,0.0,0.0,0.0,45.169,-15.615,-993.15,0.125,-0.24
-381.0,-69.0,5394.0,225.0,0.0,0.0,0.0,44.582,-15.625,-993.16,0.277,-0.09
-380.0,-69.0,5395.0,225.0,0.0,0.0,0.0,44.274,-15.631,-993.16,0.354,-0.05
-379.0,-69.0,5396.0,225.0,0.0,0.0,0.0,44.433,-15.595,-993.16,0.25,-0.02
-378.0,-68.0,5397.0,225.0,0.0,0.0,0.0,44.348,-15.522,-993.16,0.369,-0.04
-378.0,-69.0,5398.0,225.0,0.0,0.0,0.0,44.294,-13.088,-993.21,0.288,-0.13
-377.0,-70.0,5399.0,225.0,0.0,0.0,0.0,44.275,-10.786,-995.64,0.262,-0.08
-377.0,-71.0,5400.0,225.0,0.0,0.0,0.0,41.817,-13.609,-995.57,0.173,-0.05
-377.0,-71.0,5400.0,225.0,0.0,0.0,0.0,39.421,-16.121,-995.03,0.212,-0.07
-376.0,-72.0,5401.0,225.0,0.0,0.0,0.0,40.097,-15.482,-997.65,0.134,-0.07
-376.0,-72.0,5402.0,225.0,0.0,0.0,0.0,40.441,-15.276,-997.54,0.23,-0.07
-376.0,-72.0,5403.0,225.0,0.0,0.0,0.0,40.31,-15.497,-997.02,0.227,-0.08
-376.0,-73.0,5404.0,225.0,0.0,0.0,0.0,42.72,-15.507,-994.81,0.185,-0.21
-376.0,-74.0,5405.0,225.0,0.0,0.0,0.0,45.012,-15.51,-992.36,0.053,-0.16
-376.0,-76.0,5406.0,225.0,0.0,0.0,0.0,44.521,-15.555,-993.0,-0.038,-0.23
-376.0,-77.0,5407.0,225.0,0.0,0.0,0.0,44.264,-15.599,-993.28,0.087,-0.29
-375.0,-78.0,5408.0,225.0,0.0,0.0,0.0,44.48,-15.602,-993.12,0.066,-0.09
-376.0,-78.0,5408.0,225.0,0.0,0.0,0.0,44.485,-15.619,-993.17,0.361,-0.24
-376.0,-77.0,5409.0,225.0,0.0,0.0,0.0,44.517,-15.63,-993.15,0.332,-0.23
-376.0,-77.0,5410.0,225.0,0.0,0.0,0.0,44.501,-15.602,-993.17,0.305,-0.25
-376.0,-77.0,5411.0,225.0,0.0,0.0,0.0,44.492,-15.523,-993.16,0.343,-0.37
-377.0,-77.0,5412.0,225.0,0.0,0.0,0.0,44.457,-15.401,-993.16,0.252,-0.37
-377.0,-77.0,5413.0,225.0,0.0,0.0,0.0,44.509,-15.355,-995.55,0.281,-0.18
-377.0,-77.0,5414.0,225.0,0.0,0.0,0.0,44.581,-15.334,-997.88,0.327,-0.21
-377.0,-77.0,5415.0,225.0,0.0,0.0,0.0,44.56,-15.26,-997.3,0.299,-0.23
-376.0,-77.0,5416.0,225.0,0.0,0.0,0.0,44.537,-15.252,-996.99,0.295,-0.05
-376.0,-77.0,5416.0,225.0,0.0,0.0,0.0,44.508,-15.304,-997.16,0.302,-0.3
-376.0,-77.0,5417.0,225.0,0.0,0.0,0.0,44.372,-15.287,-994.72,0.294,-0.25
-376.0,-77.0,5418.0,225.0,0.0,0.0,0.0,46.609,-15.304,-992.35,0.3,-0.23
-376.0,-78.0,5419.0,225.0,0.0,0.0,0.0,48.891,-17.766,-992.84,0.158,-0.5
-377.0,-77.0,5420.0,225.0,0.0,0.0,0.0,45.92,-20.101,-993.17,0.202,-0.32
-377.0,-77.0,5421.0,225.0,0.0,0.0,0.0,43.246,-19.45,-990.67,0.139,-0.24
-377.0,-77.0,5422.0,225.0,0.0,0.0,0.0,43.995,-19.111,-988.36,0.224,-0.27
-377.0,-76.0,5423.0,225.0,0.0,0.0,0.0,44.353,-19.335,-988.94,0.374,-0.18
-377.0,-76.0,5423.0,225.0,0.0,0.0,0.0,44.336,-19.411,-991.66,0.283,-0.29
-378.0,-75.0,5424.0,225.0,0.0,0.0,0.0,44.441,-19.493,-993.81,0.207,-0.31
-377.0,-75.0,5425.0,225.0,0.0,0.0,0.0,44.396,-19.415,-993.26,0.182,-0.1
-376.0,-76.0,5426.0,225.0,0.0,0.0,0.0,44.35,-19.356,-992.95,0.107,-0.02
-375.0,-76.0,5427.0,225.0,0.0,0.0,0.0,41.906,-19.284,-993.18,0.094,-0.02
-375.0,-75.0,5428.0,225.0,0.0,0.0,0.0,39.52,-19.234,-993.17,0.289,-0.03
-375.0,-76.0,5429.0,225.0,0.0,0.0,0.0,40.118,-16.999,-995.6,0.118,-0.13
-375.0,-76.0,5430.0,225.0,0.0,0.0,0.0,40.427,-14.826,-997.96,0.277,-0.09
-375.0,-76.0,5431.0,225.0,0.0,0.0,0.0,40.181,-15.414,-997.38,0.349,-0.05
-375.0,-76.0,5431.0,225.0,0.0,0.0,0.0,40.201,-15.716,-997.06,0.247,-0.07
-375.0,-76.0,5432.0,225.0,0.0,0.0,0.0,40.152,-15.45,-994.84,0.371,-0.07
-374.0,-76.0,5433.0,225.0,0.0,0.0,0.0,42.528,-15.383,-992.42,0.286,-0.07
-373.0,-76.0,5434.0,225.0,0.0,0.0,0.0,44.929,-15.355,-992.97,0.258,-0.08
-373.0,-76.0,5435.0,225.0,0.0,0.0,0.0,44.427,-15.319,-993.27,0.317,-0.21
-373.0,-76.0,5436.0,225.0,0.0,0.0,0.0,46.557,-15.28,-993.08,0.305,-0.3
-373.0,-76.0,5437.0,225.0,0.0,0.0,0.0,49.098,-15.298,-993.07,0.291,-0.32
-373.0,-76.0,5438.0,225.0,0.0,0.0,0.0,48.525,-15.312,-993.07,0.305,-0.3
-372.0,-76.0,5439.0,225.0,0.0,0.0,0.0,48.295,-15.339,-993.1,0.295,-0.21
-371.0,-77.0,5439.0,225.0,0.0,0.0,0.0,48.51,-15.382,-993.08,0.15,-0.11
-370.0,-77.0,5440.0,225.0,0.0,0.0,0.0,48.601,-15.511,-995.47,0.207,-0.19
-369.0,-77.0,5441.0,225.0,0.0,0.0,0.0,46.294,-17.963,-997.81,0.139,-0.11
-368.0,-77.0,5442.0,225.0,0.0,0.0,0.0,46.237,-20.283,-997.17,0.221,-0.19
-368.0,-76.0,5443.0,225.0,0.0,0.0,0.0,46.686,-19.747,-996.87,0.374,-0.19
-368.0,-75.0,5444.0,225.0,0.0,0.0,0.0,43.983,-19.466,-997.09,0.281,-0.15
-368.0,-75.0,5445.0,225.0,0.0,0.0,0.0,44.001,-19.64,-997.04,0.205,-0.3
-367.0,-75.0,5446.0,225.0,0.0,0.0,0.0,44.484,-17.225,-997.09,0.182,-0.12
-367.0,-76.0,5447.0,225.0,0.0,0.0,0.0,44.26,-14.883,-997.12,0.106,-0.23
-367.0,-77.0,5447.0,225.0,0.0,0.0,0.0,44.351,-15.393,-997.12,0.238,-0.09
-366.0,-76.0,5448.0,225.0,0.0,0.0,0.0,44.348,-15.682,-997.12,0.383,-0.02
-365.0,-76.0,5449.0,225.0,0.0,0.0,0.0,44.422,-15.513,-997.11,0.276,-0.11
-365.0,-76.0,5450.0,225.0,0.0,0.0,0.0,44.424,-15.557,-997.12,0.352,-0.15
-365.0,-76.0,5451.0,225.0,0.0,0.0,0.0,44.329,-15.454,-994.73,0.273,-0.18
-366.0,-76.0,5452.0,225.0,0.0,0.0,0.0,44.238,-15.357,-992.39,0.262,-0.4
-366.0,-77.0,5453.0,225.0,0.0,0.0,0.0,44.242,-15.331,-992.98,0.172,-0.22
-365.0,-77.0,5454.0,225.0,0.0,0.0,0.0,44.273,-15.323,-993.29,0.212,-0.15
-365.0,-79.0,5455.0,225.0,0.0,0.0,0.0,44.322,-15.325,-993.12,-0.013,-0.17
-363.0,-80.0,5455.0,225.0,0.0,0.0,0.0,44.386,-15.36,-993.16,0.129,0.05
-364.0,-80.0,5456.0,225.0,0.0,0.0,0.0,44.424,-15.428,-993.15,0.211,-0.25
-363.0,-81.0,5457.0,225.0,0.0,0.0,0.0,44.417,-15.515,-993.17,0.203,-0.15
-363.0,-80.0,5458.0,225.0,0.0,0.0,0.0,44.37,-15.591,-993.16,0.429,-0.23
-363.0,-80.0,5459.0,225.0,0.0,0.0,0.0,44.298,-17.972,-993.11,0.259,-0.17
-363.0,-79.0,5460.0,225.0,0.0,0.0,0.0,44.243,-20.239,-993.07,0.315,-0.13
-362.0,-78.0,5461.0,225.0,0.0,0.0,0.0,44.231,-19.578,-993.08,0.292,-0.17
-362.0,-78.0,5462.0,225.0,0.0,0.0,0.0,44.237,-19.166,-993.09,0.273,-0.18
-362.0,-77.0,5462.0,225.0,0.0,0.0,0.0,41.876,-19.207,-993.13,0.308,-0.16
-362.0,-77.0,5463.0,225.0,0.0,0.0,0.0,39.586,-16.726,-993.22,0.309,-0.03
-362.0,-76.0,5464.0,225.0,0.0,0.0,0.0,42.561,-16.789,-993.16,0.288,-0.21
-362.0,-76.0,5465.0,225.0,0.0,0.0,0.0,45.191,-17.332,-993.1,0.297,-0.1
-362.0,-76.0,5466.0,225.0,0.0,0.0,0.0,44.447,-14.808,-993.17,0.298,-0.25
-361.0,-76.0,5467.0,225.0,0.0,0.0,0.0,44.177,-14.966,-993.17,0.295,-0.17
-360.0,-76.0,5468.0,225.0,0.0,0.0,0.0,44.33,-15.531,-993.16,0.299,0.01
-360.0,-76.0,5469.0,225.0,0.0,0.0,0.0,44.313,-15.363,-993.16,0.297,-0.22
-360.0,-76.0,5470.0,225.0,0.0,0.0,0.0,44.316,-15.467,-993.16,0.295,-0.11
-359.0,-76.0,5470.0,225.0,0.0,0.0,0.0,46.581,-17.725,-990.68,0.297,-0.24
-359.0,-75.0,5471.0,225.0,0.0,0.0,0.0,48.902,-20.081,-990.64,0.297,-0.32
-359.0,-74.0,5472.0,225.0,0.0,0.0,0.0,48.332,-19.496,-991.2,0.296,-0.21
-359.0,-74.0,5473.0,225.0,0.0,0.0,0.0,47.96,-19.08,-988.6,0.297,-0.46
-360.0,-73.0,5474.0,225.0,0.0,0.0,0.0,48.178,-19.246,-988.7,0.296,-0.48
-361.0,-73.0,5475.0,225.0,0.0,0.0,0.0,45.835,-19.181,-989.27,0.296,-0.47
-362.0,-72.0,5476.0,225.0,0.0,0.0,0.0,43.67,-19.238,-991.48,0.297,-0.51
-363.0,-71.0,5477.0,225.0,0.0,0.0,0.0,44.399,-19.308,-993.88,0.296,-0.27
-363.0,-71.0,5478.0,225.0,0.0,0.0,0.0,44.765,-19.3,-993.24,0.296,-0.34
-363.0,-70.0,5478.0,225.0,0.0,0.0,0.0,44.61,-19.287,-992.97,0.296,-0.18
-363.0,-69.0,5479.0,225.0,0.0,0.0,0.0,44.617,-19.293,-993.13,0.296,-0.15
-362.0,-69.0,5480.0,225.0,0.0,0.0,0.0,44.505,-19.299,-993.08,0.296,-0.14
-361.0,-69.0,5481.0,225.0,0.0,0.0,0.0,44.383,-16.957,-993.14,0.296,0.01
-360.0,-69.0,5482.0,225.0,0.0,0.0,0.0,44.207,-14.666,-993.16,0.296,-0.11
-360.0,-69.0,5483.0,225.0,0.0,0.0,0.0,44.042,-15.248,-993.17,0.296,-0.03
-359.0,-69.0,5484.0,225.0,0.0,0.0,0.0,43.913,-15.549,-993.16,0.296,-0.07
-358.0,-69.0,5485.0,225.0,0.0,0.0,0.0,46.132,-15.318,-990.72,0.296,-0.1
-357.0,-69.0,5486.0,225.0,0.0,0.0,0.0,48.37,-15.297,-988.35,0.296,-0.06
-355.0,-69.0,5486.0,225.0,0.0,0.0,0.0,47.937,-15.389,-991.34,0.296,-0.06
-354.0,-69.0,5487.0,225.0,0.0,0.0,0.0,45.443,-15.476,-994.03,0.296,-0.08
-354.0,-69.0,5488.0,225.0,0.0,0.0,0.0,43.384,-15.414,-993.31,0.296,-0.07
-354.0,-69.0,5489.0,225.0,0.0,0.0,0.0,44.03,-15.412,-993.04,0.296,-0.21
-354.0,-69.0,5490.0,225.0,0.0,0.0,0.0,44.524,-15.511,-995.58,0.296,-0.3
-355.0,-69.0,5491.0,225.0,0.0,0.0,0.0,44.489,-15.59,-997.9,0.296,-0.45
-357.0,-69.0,5492.0,225.0,0.0,0.0,0.0,44.581,-17.916,-997.25,0.296,-0.53
-358.0,-68.0,5493.0,225.0,0.0,0.0,0.0,44.635,-17.851,-996.93,0.296,-0.46
-359.0,-68.0,5494.0,225.0,0.0,0.0,0.0,44.751,-17.333,-997.13,0.296,-0.47
-360.0,-66.0,5494.0,225.0,0.0,0.0,0.0,42.445,-19.879,-997.07,0.441,-0.42
-361.0,-66.0,5495.0,225.0,0.0,0.0,0.0,40.196,-19.745,-997.13,0.245,-0.3
-362.0,-66.0,5496.0,225.0,0.0,0.0,0.0,40.806,-19.231,-997.11,0.214,-0.24
-362.0,-66.0,5497.0,225.0,0.0,0.0,0.0,43.35,-19.376,-994.68,0.118,-0.21
-361.0,-67.0,5498.0,225.0,0.0,0.0,0.0,45.386,-19.324,-994.69,-0.015,-0.08
-362.0,-66.0,5499.0,225.0,0.0,0.0,0.0,44.767,-19.492,-997.62,0.311,-0.36
-362.0,-66.0,5500.0,225.0,0.0,0.0,0.0,41.874,-19.483,-997.4,0.302,-0.21
-363.0,-65.0,5501.0,225.0,0.0,0.0,0.0,39.552,-19.532,-996.96,0.353,-0.18
-363.0,-64.0,5501.0,225.0,0.0,0.0,0.0,39.975,-19.595,-997.16,0.359,-0.17
-363.0,-64.0,5502.0,225.0,0.0,0.0,0.0,42.641,-17.253,-997.1,0.224,-0.06
-363.0,-64.0,5503.0,225.0,0.0,0.0,0.0,44.813,-14.92,-997.14,0.269,-0.19
-363.0,-64.0,5504.0,225.0,0.0,0.0,0.0,44.33,-15.4,-997.1,0.326,-0.21
-362.0,-64.0,5505.0,225.0,0.0,0.0,0.0,44.077,-15.616,-997.12,0.297,-0.15
-362.0,-64.0,5506.0,225.0,0.0,0.0,0.0,44.252,-15.312,-994.73,0.295,-0.16
-362.0,-64.0,5507.0,225.0,0.0,0.0,0.0,44.203,-12.903,-992.43,0.296,-0.16
-361.0,-65.0,5508.0,225.0,0.0,0.0,0.0,44.295,-12.974,-993.03,0.286,-0.16
-361.0,-65.0,5509.0,225.0,0.0,0.0,0.0,44.319,-15.898,-993.28,0.297,-0.17
-360.0,-66.0,5509.0,225.0,0.0,0.0,0.0,44.351,-15.638,-993.11,0.155,-0.03
-359.0,-66.0,5510.0,225.0,0.0,0.0,0.0,44.36,-15.216,-993.17,0.198,-0.07
-358.0,-67.0,5511.0,225.0,0.0,0.0,0.0,44.342,-15.473,-993.15,0.135,-0.01
-358.0,-67.0,5512.0,225.0,0.0,0.0,0.0,44.312,-15.466,-993.17,0.219,-0.09
-357.0,-67.0,5513.0,225.0,0.0,0.0,0.0,44.26,-15.545,-993.16,0.37,-0.1
-357.0,-67.0,5514.0,225.0,0.0,0.0,0.0,44.275,-17.986,-995.5,0.279,-0.2
-357.0,-66.0,5515.0,225.0,0.0,0.0,0.0,44.243,-17.956,-995.45,0.347,-0.15
-357.0,-66.0,5516.0,225.0,0.0,0.0,0.0,44.164,-14.947,-992.58,0.272,-0.22
-356.0,-66.0,5517.0,225.0,0.0,0.0,0.0,44.211,-15.161,-992.86,0.261,-0.14
-355.0,-66.0,5517.0,225.0,0.0,0.0,0.0,44.369,-15.661,-995.72,0.311,-0.0
-355.0,-66.0,5518.0,225.0,0.0,0.0,0.0,44.432,-15.376,-995.45,0.304,-0.23
-356.0,-66.0,5519.0,225.0,0.0,0.0,0.0,44.386,-15.287,-992.58,0.289,-0.25
-357.0,-66.0,5520.0,225.0,0.0,0.0,0.0,44.399,-17.606,-992.79,0.297,-0.47
-358.0,-65.0,5521.0,225.0,0.0,0.0,0.0,44.404,-19.961,-993.25,0.291,-0.42
-358.0,-65.0,5521.0,225.0,0.0,0.0,0.0,44.415,-19.384,-993.03,0.292,-0.35
-358.0,-65.0,5522.0,225.0,0.0,0.0,0.0,44.462,-19.118,-993.09,0.153,-0.17
-358.0,-66.0,5522.0,225.0,0.0,0.0,0.0,44.518,-19.327,-993.07,0.054,-0.12
-358.0,-66.0,5523.0,225.0,0.0,0.0,0.0,44.553,-19.319,-993.1,0.039,-0.26
-357.0,-67.0,5524.0,225.0,0.0,0.0,0.0,44.53,-19.382,-993.08,0.06,-0.09
-357.0,-66.0,5525.0,225.0,0.0,0.0,0.0,44.448,-19.436,-993.08,0.294,-0.28
-358.0,-65.0,5526.0,225.0,0.0,0.0,0.0,44.336,-19.523,-993.09,0.353,-0.23
-358.0,-65.0,5527.0,225.0,0.0,0.0,0.0,44.238,-17.219,-993.13,0.331,-0.23
-358.0,-65.0,5528.0,225.0,0.0,0.0,0.0,44.174,-14.905,-993.18,0.325,-0.36
-358.0,-65.0,5529.0,225.0,0.0,0.0,0.0,44.141,-15.399,-993.16,0.239,-0.23
-358.0,-65.0,5530.0,225.0,0.0,0.0,0.0,44.159,-15.567,-993.16,0.277,-0.08
-358.0,-65.0,5531.0,225.0,0.0,0.0,0.0,44.214,-15.27,-993.16,0.32,-0.19
-358.0,-65.0,5531.0,225.0,0.0,0.0,0.0,44.259,-17.567,-993.11,0.298,-0.24
-359.0,-64.0,5532.0,225.0,0.0,0.0,0.0,44.282,-19.809,-993.07,0.291,-0.41
-360.0,-64.0,5533.0,225.0,0.0,0.0,0.0,44.314,-16.907,-993.13,0.293,-0.45
-360.0,-65.0,5534.0,225.0,0.0,0.0,0.0,44.343,-14.338,-993.18,0.144,-0.23
-360.0,-66.0,5535.0,225.0,0.0,0.0,0.0,46.748,-15.169,-993.12,0.201,-0.2
-359.0,-67.0,5536.0,225.0,0.0,0.0,0.0,49.115,-15.526,-993.07,-0.006,-0.19
-359.0,-67.0,5537.0,225.0,0.0,0.0,0.0,46.187,-15.423,-993.13,0.266,-0.3
-359.0,-67.0,5538.0,225.0,0.0,0.0,0.0,43.552,-15.514,-993.18,0.304,-0.3
-358.0,-67.0,5539.0,225.0,0.0,0.0,0.0,46.559,-15.537,-990.73,0.36,-0.11
-357.0,-66.0,5539.0,225.0,0.0,0.0,0.0,49.008,-15.525,-988.34,0.497,-0.01
-355.0,-66.0,5540.0,225.0,0.0,0.0,0.0,48.306,-15.579,-991.34,0.18,-0.01
-354.0,-66.0,5541.0,225.0,0.0,0.0,0.0,45.676,-15.564,-994.03,0.329,-0.17
-355.0,-67.0,5542.0,225.0,0.0,0.0,0.0,43.429,-15.397,-993.31,0.09,-0.22
-355.0,-68.0,5543.0,225.0,0.0,0.0,0.0,43.91,-15.285,-993.04,0.196,-0.24
-354.0,-68.0,5544.0,225.0,0.0,0.0,0.0,44.183,-15.248,-993.19,0.179,-0.12
-353.0,-69.0,5545.0,225.0,0.0,0.0,0.0,44.03,-15.265,-993.17,0.213,0.0
-353.0,-69.0,5546.0,225.0,0.0,0.0,0.0,44.239,-15.423,-995.55,0.35,-0.08
-352.0,-69.0,5546.0,225.0,0.0,0.0,0.0,44.374,-15.595,-997.87,0.282,-0.02
-351.0,-68.0,5547.0,225.0,0.0,0.0,0.0,44.421,-15.642,-997.3,0.344,-0.09
-351.0,-68.0,5548.0,225.0,0.0,0.0,0.0,42.029,-17.98,-996.99,0.273,-0.24
-352.0,-68.0,5549.0,225.0,0.0,0.0,0.0,39.696,-20.237,-997.15,0.264,-0.14
-352.0,-67.0,5550.0,225.0,0.0,0.0,0.0,42.657,-19.637,-997.07,0.306,-0.21
-352.0,-66.0,5551.0,225.0,0.0,0.0,0.0,45.295,-19.308,-997.03,0.301,-0.29
-352.0,-66.0,5552.0,225.0,0.0,0.0,0.0,44.575,-19.427,-997.03,0.289,-0.22
-353.0,-66.0,5553.0,225.0,0.0,0.0,0.0,44.285,-19.272,-994.66,0.15,-0.33
-354.0,-66.0,5554.0,225.0,0.0,0.0,0.0,44.421,-19.196,-992.31,0.195,-0.38
-353.0,-66.0,5554.0,225.0,0.0,0.0,0.0,46.841,-19.241,-992.86,0.132,-0.18
-353.0,-66.0,5555.0,225.0,0.0,0.0,0.0,49.209,-19.332,-993.12,0.075,-0.33
-353.0,-66.0,5556.0,225.0,0.0,0.0,0.0,48.545,-19.295,-990.57,0.273,-0.32
-353.0,-66.0,5557.0,225.0,0.0,0.0,0.0,48.254,-19.362,-990.68,0.117,-0.34
-354.0,-66.0,5558.0,225.0,0.0,0.0,0.0,46.107,-19.507,-993.64,0.27,-0.46
-354.0,-65.0,5559.0,225.0,0.0,0.0,0.0,43.689,-19.5,-993.42,0.346,-0.32
-355.0,-64.0,5560.0,225.0,0.0,0.0,0.0,44.158,-19.386,-990.52,0.243,-0.31
-355.0,-64.0,5561.0,225.0,0.0,0.0,0.0,44.35,-19.258,-988.4,0.361,-0.23
-355.0,-63.0,5562.0,225.0,0.0,0.0,0.0,44.274,-19.278,-991.33,0.28,-0.26
-354.0,-63.0,5562.0,225.0,0.0,0.0,0.0,44.375,-19.28,-994.0,0.254,-0.06
-354.0,-62.0,5563.0,225.0,0.0,0.0,0.0,44.303,-16.823,-993.25,0.311,-0.2
-354.0,-63.0,5564.0,225.0,0.0,0.0,0.0,44.267,-14.471,-993.05,0.154,-0.13
-354.0,-64.0,5565.0,225.0,0.0,0.0,0.0,44.1,-14.959,-990.81,0.19,-0.31
-355.0,-64.0,5566.0,225.0,0.0,0.0,0.0,43.942,-17.552,-988.39,0.14,-0.42
-356.0,-65.0,5567.0,225.0,0.0,0.0,0.0,43.92,-19.766,-988.94,0.068,-0.4
-358.0,-64.0,5568.0,225.0,0.0,0.0,0.0,43.954,-19.332,-989.24,0.269,-0.52
-358.0,-65.0,5569.0,225.0,0.0,0.0,0.0,44.04,-19.112,-989.09,0.121,-0.26
-359.0,-65.0,5570.0,225.0,0.0,0.0,0.0,44.187,-17.031,-989.18,0.269,-0.4
-359.0,-65.0,5570.0,225.0,0.0,0.0,0.0,44.335,-14.722,-989.21,0.344,-0.15
-358.0,-66.0,5571.0,225.0,0.0,0.0,0.0,44.427,-15.308,-989.22,0.098,-0.12
-358.0,-66.0,5572.0,225.0,0.0,0.0,0.0,44.448,-15.543,-989.2,0.265,-0.15
-357.0,-67.0,5573.0,225.0,0.0,0.0,0.0,44.39,-15.308,-989.2,0.121,0.01
-357.0,-68.0,5574.0,225.0,0.0,0.0,0.0,44.278,-12.928,-989.25,0.178,-0.25
-358.0,-68.0,5575.0,225.0,0.0,0.0,0.0,41.823,-12.981,-991.68,0.385,-0.26
-359.0,-68.0,5576.0,225.0,0.0,0.0,0.0,39.417,-15.916,-994.01,0.282,-0.45
-361.0,-67.0,5577.0,225.0,0.0,0.0,0.0,42.274,-15.627,-993.37,0.337,-0.55
-363.0,-68.0,5578.0,225.0,0.0,0.0,0.0,44.825,-15.084,-990.63,0.276,-0.44
-363.0,-68.0,5578.0,225.0,0.0,0.0,0.0,44.111,-15.199,-988.47,0.255,-0.32
-363.0,-68.0,5579.0,225.0,0.0,0.0,0.0,44.049,-15.144,-989.03,0.304,-0.19
-363.0,-68.0,5580.0,225.0,0.0,0.0,0.0,44.479,-15.267,-991.73,0.305,-0.19
-363.0,-68.0,5581.0,225.0,0.0,0.0,0.0,44.64,-15.322,-993.88,0.286,-0.24
-364.0,-68.0,5582.0,225.0,0.0,0.0,0.0,44.633,-15.34,-993.35,0.292,-0.46
-365.0,-68.0,5583.0,225.0,0.0,0.0,0.0,44.533,-15.356,-993.03,0.289,-0.5
-367.0,-68.0,5584.0,225.0,0.0,0.0,0.0,44.446,-15.381,-993.21,0.289,-0.48
-367.0,-68.0,5585.0,225.0,0.0,0.0,0.0,44.27,-15.321,-990.77,0.295,-0.34
-368.0,-68.0,5586.0,225.0,0.0,0.0,0.0,44.143,-17.599,-988.4,0.292,-0.3
-368.0,-67.0,5586.0,225.0,0.0,0.0,0.0,44.162,-19.923,-988.93,0.29,-0.28
-368.0,-67.0,5587.0,225.0,0.0,0.0,0.0,44.195,-19.361,-989.25,0.291,-0.26
-369.0,-66.0,5588.0,225.0,0.0,0.0,0.0,44.193,-19.053,-989.09,0.291,-0.29
-368.0,-65.0,5589.0,225.0,0.0,0.0,0.0,44.169,-19.217,-989.13,0.291,-0.19
-368.0,-65.0,5590.0,225.0,0.0,0.0,0.0,46.498,-19.189,-989.08,0.291,-0.13
-367.0,-64.0,5591.0,225.0,0.0,0.0,0.0,48.766,-19.216,-989.05,0.291,-0.33
-367.0,-64.0,5592.0,225.0,0.0,0.0,0.0,48.126,-19.187,-989.05,0.291,-0.32
-367.0,-63.0,5593.0,225.0,0.0,0.0,0.0,50.155,-19.217,-989.01,0.291,-0.29
-366.0,-63.0,5593.0,225.0,0.0,0.0,0.0,50.343,-19.301,-991.4,0.291,-0.33
-365.0,-62.0,5594.0,225.0,0.0,0.0,0.0,49.8,-19.29,-991.35,0.291,-0.13
-364.0,-62.0,5595.0,225.0,0.0,0.0,0.0,52.377,-19.212,-988.38,0.291,-0.26
-363.0,-61.0,5596.0,225.0,0.0,0.0,0.0,52.319,-19.222,-988.67,0.291,-0.31
-363.0,-60.0,5597.0,225.0,0.0,0.0,0.0,49.487,-21.559,-989.15,0.291,-0.38
-362.0,-60.0,5598.0,225.0,0.0,0.0,0.0,47.387,-23.826,-988.93,0.146,-0.21
-362.0,-59.0,5599.0,225.0,0.0,0.0,0.0,47.916,-23.257,-988.99,0.196,-0.18
-360.0,-59.0,5600.0,225.0,0.0,0.0,0.0,48.29,-20.623,-989.0,0.132,-0.07
-359.0,-59.0,5601.0,225.0,0.0,0.0,0.0,48.092,-18.521,-989.08,0.215,-0.1
-358.0,-58.0,5601.0,225.0,0.0,0.0,0.0,48.03,-19.007,-986.66,0.366,-0.23
-358.0,-58.0,5602.0,225.0,0.0,0.0,0.0,45.588,-19.334,-986.76,0.129,-0.18
-358.0,-58.0,5603.0,225.0,0.0,0.0,0.0,43.306,-19.25,-989.74,0.248,-0.14
-358.0,-58.0,5604.0,225.0,0.0,0.0,0.0,43.826,-19.288,-989.44,0.11,-0.16
-357.0,-58.0,5605.0,225.0,0.0,0.0,0.0,44.104,-19.23,-988.96,0.182,-0.15
-357.0,-57.0,5606.0,225.0,0.0,0.0,0.0,43.961,-19.219,-989.17,0.382,-0.16
-357.0,-57.0,5607.0,225.0,0.0,0.0,0.0,44.034,-19.187,-989.12,0.284,-0.17
-356.0,-56.0,5608.0,225.0,0.0,0.0,0.0,46.442,-19.192,-989.1,0.338,-0.02
-354.0,-56.0,5608.0,225.0,0.0,0.0,0.0,46.446,-19.163,-989.07,0.126,-0.06
-354.0,-56.0,5609.0,225.0,0.0,0.0,0.0,43.553,-19.091,-989.14,0.159,-0.15
-354.0,-57.0,5610.0,225.0,0.0,0.0,0.0,43.842,-19.062,-989.14,0.146,-0.18
-354.0,-56.0,5611.0,225.0,0.0,0.0,0.0,44.385,-19.152,-991.51,0.228,-0.25
-355.0,-55.0,5612.0,225.0,0.0,0.0,0.0,44.236,-19.27,-993.85,0.361,-0.27
-355.0,-55.0,5613.0,225.0,0.0,0.0,0.0,44.282,-19.304,-993.26,0.275,-0.21
-355.0,-54.0,5614.0,225.0,0.0,0.0,0.0,44.28,-19.335,-992.96,0.34,-0.33
-355.0,-54.0,5615.0,225.0,0.0,0.0,0.0,44.45,-19.437,-995.52,0.267,-0.24
-355.0,-54.0,5616.0,225.0,0.0,0.0,0.0,44.565,-19.496,-997.81,0.116,-0.23
-355.0,-54.0,5616.0,225.0,0.0,0.0,0.0,44.589,-19.434,-997.23,0.212,-0.13
-354.0,-54.0,5617.0,225.0,0.0,0.0,0.0,44.605,-19.393,-996.9,0.14,-0.16
-354.0,-54.0,5618.0,225.0,0.0,0.0,0.0,44.589,-19.4,-997.09,0.209,-0.1
-353.0,-54.0,5619.0,225.0,0.0,0.0,0.0,44.548,-17.083,-997.09,0.223,-0.05
-353.0,-55.0,5620.0,225.0,0.0,0.0,0.0,44.481,-14.836,-997.14,0.176,-0.23
-353.0,-55.0,5621.0,225.0,0.0,0.0,0.0,44.307,-15.368,-994.72,0.182,-0.22
-354.0,-56.0,5622.0,225.0,0.0,0.0,0.0,44.153,-15.609,-992.39,0.196,-0.33
-354.0,-57.0,5622.0,225.0,0.0,0.0,0.0,44.138,-15.47,-992.98,0.187,-0.32
-353.0,-57.0,5623.0,225.0,0.0,0.0,0.0,44.169,-15.515,-993.29,0.194,-0.05
-352.0,-58.0,5623.0,225.0,0.0,0.0,0.0,44.155,-15.393,-990.73,0.194,-0.0
-352.0,-59.0,5624.0,225.0,0.0,0.0,0.0,44.161,-15.304,-988.44,0.042,-0.17
-351.0,-59.0,5625.0,225.0,0.0,0.0,0.0,46.669,-17.742,-991.31,0.239,-0.12
-351.0,-59.0,5626.0,225.0,0.0,0.0,0.0,46.687,-20.121,-993.93,0.128,-0.27
-352.0,-59.0,5627.0,225.0,0.0,0.0,0.0,43.724,-19.492,-993.22,0.274,-0.29
-351.0,-58.0,5628.0,225.0,0.0,0.0,0.0,43.962,-19.186,-992.96,0.342,-0.05
-352.0,-57.0,5629.0,225.0,0.0,0.0,0.0,44.351,-19.275,-990.73,0.242,-0.37
-352.0,-57.0,5630.0,225.0,0.0,0.0,0.0,44.154,-19.21,-990.76,0.354,-0.32
-353.0,-56.0,5630.0,225.0,0.0,0.0,0.0,44.333,-19.285,-993.68,0.276,-0.4
-354.0,-56.0,5631.0,225.0,0.0,0.0,0.0,44.338,-19.206,-993.38,0.255,-0.43
-354.0,-55.0,5632.0,225.0,0.0,0.0,0.0,44.412,-19.16,-992.92,0.308,-0.15
-354.0,-55.0,5633.0,225.0,0.0,0.0,0.0,44.385,-19.054,-990.74,0.295,-0.23
-354.0,-54.0,5634.0,225.0,0.0,0.0,0.0,42.052,-19.03,-990.78,0.283,-0.08
-354.0,-54.0,5635.0,225.0,0.0,0.0,0.0,39.752,-19.057,-991.39,0.295,-0.18
-354.0,-54.0,5636.0,225.0,0.0,0.0,0.0,42.634,-19.111,-991.07,0.141,-0.13
-353.0,-54.0,5637.0,225.0,0.0,0.0,0.0,45.236,-19.267,-993.49,0.191,-0.03
-352.0,-54.0,5637.0,225.0,0.0,0.0,0.0,44.282,-19.219,-991.05,0.135,-0.08
-351.0,-54.0,5638.0,225.0,0.0,0.0,0.0,43.898,-19.254,-990.57,0.213,0.0
-352.0,-54.0,5639.0,225.0,0.0,0.0,0.0,44.002,-19.34,-991.35,0.218,-0.22
-351.0,-54.0,5640.0,225.0,0.0,0.0,0.0,43.842,-19.289,-988.64,0.179,-0.19
-351.0,-54.0,5641.0,225.0,0.0,0.0,0.0,43.922,-19.404,-991.19,0.183,-0.2
-351.0,-54.0,5642.0,225.0,0.0,0.0,0.0,44.053,-19.501,-994.01,0.192,-0.13
-350.0,-54.0,5643.0,225.0,0.0,0.0,0.0,41.847,-19.509,-995.64,0.187,0.0
-350.0,-54.0,5644.0,225.0,0.0,0.0,0.0,39.702,-19.525,-997.8,0.194,-0.07
-350.0,-53.0,5645.0,225.0,0.0,0.0,0.0,37.985,-19.449,-997.36,0.192,-0.02
-351.0,-54.0,5645.0,225.0,0.0,0.0,0.0,38.471,-17.145,-999.48,0.186,-0.23
-352.0,-54.0,5646.0,225.0,0.0,0.0,0.0,41.296,-14.94,-1001.97,0.333,-0.18
-352.0,-54.0,5647.0,225.0,0.0,0.0,0.0,41.003,-15.473,-1001.31,0.286,-0.2
-352.0,-54.0,5648.0,225.0,0.0,0.0,0.0,40.484,-15.743,-1001.04,0.349,-0.13
-352.0,-54.0,5649.0,225.0,0.0,0.0,0.0,40.639,-15.475,-998.79,0.266,0.0
-351.0,-54.0,5650.0,225.0,0.0,0.0,0.0,42.879,-15.424,-996.38,0.258,-0.08
-351.0,-54.0,5651.0,225.0,0.0,0.0,0.0,45.256,-15.429,-996.93,0.3,-0.15
-351.0,-54.0,5652.0,225.0,0.0,0.0,0.0,44.638,-15.438,-997.23,0.297,-0.32
-352.0,-54.0,5653.0,225.0,0.0,0.0,0.0,44.237,-15.336,-994.69,0.287,-0.34
-352.0,-54.0,5653.0,225.0,0.0,0.0,0.0,44.322,-15.28,-992.39,0.291,-0.27
-351.0,-54.0,5654.0,225.0,0.0,0.0,0.0,46.692,-15.358,-992.93,0.284,-0.05
-349.0,-54.0,5655.0,225.0,0.0,0.0,0.0,49.082,-17.767,-993.16,0.287,-0.01
-348.0,-53.0,5656.0,225.0,0.0,0.0,0.0,48.51,-20.078,-992.94,0.292,-0.02
-346.0,-53.0,5657.0,225.0,0.0,0.0,0.0,48.231,-19.522,-993.01,0.289,-0.03
-345.0,-52.0,5658.0,225.0,0.0,0.0,0.0,48.346,-19.236,-993.01,0.287,-0.12
-344.0,-52.0,5659.0,225.0,0.0,0.0,0.0,48.205,-19.409,-993.02,0.289,-0.07
-343.0,-51.0,5660.0,225.0,0.0,0.0,0.0,48.121,-19.364,-993.0,0.288,-0.18
-342.0,-51.0,5660.0,225.0,0.0,0.0,0.0,48.035,-19.368,-993.01,0.288,-0.15
-342.0,-50.0,5661.0,225.0,0.0,0.0,0.0,47.952,-19.256,-990.62,0.289,-0.22
-342.0,-50.0,5662.0,225.0,0.0,0.0,0.0,45.529,-19.155,-988.33,0.288,-0.28
-342.0,-50.0,5663.0,225.0,0.0,0.0,0.0,43.296,-19.146,-988.96,0.143,-0.23
-343.0,-50.0,5663.0,225.0,0.0,0.0,0.0,44.005,-16.811,-989.31,0.193,-0.32
-342.0,-51.0,5664.0,225.0,0.0,0.0,0.0,46.791,-14.549,-989.13,0.129,-0.23
-341.0,-53.0,5664.0,225.0,0.0,0.0,0.0,49.026,-15.173,-989.12,0.067,-0.08
-339.0,-53.0,5666.0,225.0,0.0,0.0,0.0,48.615,-15.596,-991.51,0.269,-0.04
-338.0,-54.0,5666.0,225.0,0.0,0.0,0.0,48.382,-15.561,-993.87,-0.032,-0.01
-337.0,-55.0,5667.0,225.0,0.0,0.0,0.0,46.116,-15.605,-993.31,0.17,-0.02
-337.0,-56.0,5668.0,225.0,0.0,0.0,0.0,43.615,-15.588,-993.05,0.183,-0.26
-337.0,-56.0,5669.0,225.0,0.0,0.0,0.0,44.082,-15.624,-993.21,0.162,-0.17
-337.0,-56.0,5670.0,225.0,0.0,0.0,0.0,44.258,-15.595,-993.16,0.432,-0.33
-338.0,-56.0,5671.0,225.0,0.0,0.0,0.0,44.05,-15.553,-993.17,0.259,-0.22
-337.0,-56.0,5672.0,225.0,0.0,0.0,0.0,44.118,-15.481,-993.15,0.302,-0.14
-338.0,-56.0,5673.0,225.0,0.0,0.0,0.0,44.191,-15.378,-993.16,0.284,-0.29
-336.0,-56.0,5674.0,225.0,0.0,0.0,0.0,46.603,-17.559,-990.68,0.261,-0.03
-336.0,-55.0,5674.0,225.0,0.0,0.0,0.0,48.99,-19.798,-990.64,0.297,-0.25
-335.0,-55.0,5675.0,225.0,0.0,0.0,0.0,48.561,-19.286,-993.59,0.158,-0.11
-334.0,-56.0,5676.0,225.0,0.0,0.0,0.0,45.885,-18.961,-993.37,0.184,-0.13
-334.0,-56.0,5677.0,225.0,0.0,0.0,0.0,43.68,-19.142,-992.93,0.128,-0.19
-335.0,-56.0,5678.0,225.0,0.0,0.0,0.0,44.176,-19.196,-993.13,0.213,-0.29
-335.0,-55.0,5679.0,225.0,0.0,0.0,0.0,42.136,-19.373,-995.51,0.361,-0.24
-336.0,-54.0,5680.0,225.0,0.0,0.0,0.0,41.962,-19.446,-995.48,0.273,-0.32
-336.0,-53.0,5681.0,225.0,0.0,0.0,0.0,44.823,-19.437,-992.47,0.341,-0.23
-336.0,-53.0,5682.0,225.0,0.0,0.0,0.0,44.566,-19.444,-992.77,0.264,-0.08
-335.0,-53.0,5682.0,225.0,0.0,0.0,0.0,44.165,-19.406,-993.26,0.254,-0.18
-334.0,-52.0,5683.0,225.0,0.0,0.0,0.0,44.39,-19.332,-993.03,0.304,0.03
-334.0,-51.0,5684.0,225.0,0.0,0.0,0.0,44.418,-19.349,-995.48,0.297,-0.08
-333.0,-51.0,5685.0,225.0,0.0,0.0,0.0,42.111,-19.362,-997.84,0.282,-0.04
-333.0,-51.0,5686.0,225.0,0.0,0.0,0.0,42.053,-16.973,-997.32,0.289,-0.21
-333.0,-51.0,5687.0,225.0,0.0,0.0,0.0,44.889,-17.041,-996.94,0.284,-0.17
-333.0,-50.0,5688.0,225.0,0.0,0.0,0.0,44.544,-19.933,-997.06,0.285,-0.21
-333.0,-49.0,5689.0,225.0,0.0,0.0,0.0,44.057,-19.678,-997.04,0.291,-0.12
-332.0,-49.0,5689.0,225.0,0.0,0.0,0.0,41.959,-16.877,-997.14,0.287,0.0
-333.0,-50.0,5690.0,225.0,0.0,0.0,0.0,39.665,-14.8,-997.21,0.286,-0.22
-333.0,-49.0,5691.0,225.0,0.0,0.0,0.0,42.704,-17.721,-997.11,0.287,-0.24
-335.0,-49.0,5692.0,225.0,0.0,0.0,0.0,45.249,-20.292,-994.62,0.287,-0.47
-336.0,-48.0,5693.0,225.0,0.0,0.0,0.0,44.471,-19.427,-992.31,0.287,-0.41
-336.0,-48.0,5694.0,225.0,0.0,0.0,0.0,44.276,-19.202,-992.91,0.287,-0.2
-336.0,-47.0,5695.0,225.0,0.0,0.0,0.0,44.501,-19.365,-993.21,0.287,-0.21
-335.0,-47.0,5696.0,225.0,0.0,0.0,0.0,44.54,-19.318,-993.04,0.287,-0.19
-336.0,-46.0,5697.0,225.0,0.0,0.0,0.0,44.563,-19.312,-993.09,0.287,-0.29
-336.0,-46.0,5697.0,225.0,0.0,0.0,0.0,44.518,-19.289,-993.08,0.287,-0.29
-336.0,-45.0,5698.0,225.0,0.0,0.0,0.0,44.465,-19.303,-993.09,0.287,-0.1
-335.0,-45.0,5699.0,225.0,0.0,0.0,0.0,44.385,-16.95,-993.13,0.287,-0.01
-333.0,-45.0,5700.0,225.0,0.0,0.0,0.0,46.685,-14.677,-993.13,0.287,-0.0
-332.0,-45.0,5701.0,225.0,0.0,0.0,0.0,48.919,-15.283,-993.08,0.286,-0.02
-331.0,-45.0,5702.0,225.0,0.0,0.0,0.0,48.159,-15.493,-990.69,0.286,-0.12
-330.0,-46.0,5703.0,225.0,0.0,0.0,0.0,45.32,-15.219,-988.41,0.286,-0.08
-329.0,-47.0,5704.0,225.0,0.0,0.0,0.0,43.135,-15.266,-989.04,0.141,-0.04
-329.0,-47.0,5705.0,225.0,0.0,0.0,0.0,46.057,-15.298,-989.29,0.191,-0.19
-328.0,-48.0,5705.0,225.0,0.0,0.0,0.0,48.743,-12.999,-989.12,0.128,-0.15
-328.0,-49.0,5706.0,225.0,0.0,0.0,0.0,45.677,-13.035,-989.22,0.21,-0.21
-328.0,-49.0,5707.0,225.0,0.0,0.0,0.0,43.195,-15.921,-989.2,0.362,-0.28
-328.0,-49.0,5708.0,225.0,0.0,0.0,0.0,44.052,-15.691,-989.21,0.27,-0.08
-328.0,-50.0,5709.0,225.0,0.0,0.0,0.0,44.513,-15.322,-991.59,0.193,-0.22
-328.0,-51.0,5710.0,225.0,0.0,0.0,0.0,44.499,-15.594,-993.93,0.024,-0.22
-327.0,-53.0,5711.0,225.0,0.0,0.0,0.0,44.543,-15.476,-993.34,-0.001,-0.1
-328.0,-54.0,5712.0,225.0,0.0,0.0,0.0,44.534,-15.458,-993.03,0.068,-0.26
-327.0,-54.0,5713.0,225.0,0.0,0.0,0.0,44.512,-15.438,-993.2,0.295,-0.07
-326.0,-55.0,5713.0,225.0,0.0,0.0,0.0,44.435,-15.495,-993.16,0.195,-0.0
-325.0,-55.0,5714.0,225.0,0.0,0.0,0.0,46.747,-15.563,-993.12,0.229,-0.11
-323.0,-56.0,5715.0,225.0,0.0,0.0,0.0,48.993,-15.588,-993.06,0.01,0.0
-323.0,-58.0,5716.0,225.0,0.0,0.0,0.0,48.325,-15.561,-993.09,0.058,-0.21
-322.0,-58.0,5717.0,225.0,0.0,0.0,0.0,47.956,-15.512,-993.09,0.189,-0.19
-321.0,-59.0,5718.0,225.0,0.0,0.0,0.0,48.09,-15.48,-993.08,0.219,-0.19
-321.0,-58.0,5719.0,225.0,0.0,0.0,0.0,47.979,-15.38,-990.7,0.416,-0.27
-320.0,-58.0,5720.0,225.0,0.0,0.0,0.0,48.05,-15.371,-990.75,0.245,-0.09
-320.0,-58.0,5721.0,225.0,0.0,0.0,0.0,48.139,-15.36,-991.29,0.303,-0.36
-320.0,-59.0,5721.0,225.0,0.0,0.0,0.0,48.159,-15.21,-988.67,0.275,-0.18
-319.0,-59.0,5722.0,225.0,0.0,0.0,0.0,48.236,-15.152,-988.78,0.264,-0.16
-318.0,-59.0,5723.0,225.0,0.0,0.0,0.0,45.924,-15.103,-989.35,0.3,-0.18
-318.0,-60.0,5724.0,225.0,0.0,0.0,0.0,43.614,-15.056,-989.17,0.15,-0.06
-319.0,-60.0,5725.0,225.0,0.0,0.0,0.0,44.162,-17.425,-989.18,0.181,-0.32
-319.0,-60.0,5726.0,225.0,0.0,0.0,0.0,46.769,-19.787,-989.04,0.127,-0.43
-320.0,-60.0,5727.0,225.0,0.0,0.0,0.0,46.485,-19.281,-989.09,0.21,-0.38
-320.0,-59.0,5728.0,225.0,0.0,0.0,0.0,43.663,-19.127,-991.53,0.359,-0.24
-320.0,-59.0,5728.0,225.0,0.0,0.0,0.0,44.019,-19.462,-993.85,0.271,-0.06
-318.0,-59.0,5729.0,225.0,0.0,0.0,0.0,44.453,-19.363,-990.87,0.192,0.06
-317.0,-59.0,5730.0,225.0,0.0,0.0,0.0,46.618,-19.382,-990.58,0.167,-0.05
-316.0,-59.0,5731.0,225.0,0.0,0.0,0.0,49.071,-19.46,-993.63,0.094,-0.06
-315.0,-59.0,5732.0,225.0,0.0,0.0,0.0,48.285,-19.323,-990.92,0.225,-0.23
-316.0,-58.0,5733.0,225.0,0.0,0.0,0.0,45.511,-19.252,-990.56,0.37,-0.3
-316.0,-57.0,5734.0,225.0,0.0,0.0,0.0,43.363,-19.332,-993.72,0.263,-0.28
-317.0,-57.0,5735.0,225.0,0.0,0.0,0.0,43.799,-19.236,-991.0,0.339,-0.28
-316.0,-56.0,5736.0,225.0,0.0,0.0,0.0,46.463,-19.138,-988.16,0.26,-0.07
-314.0,-56.0,5736.0,225.0,0.0,0.0,0.0,48.727,-19.149,-988.89,0.25,-0.0
-313.0,-55.0,5737.0,225.0,0.0,0.0,0.0,48.321,-19.115,-989.17,0.305,-0.16
-313.0,-55.0,5738.0,225.0,0.0,0.0,0.0,45.689,-19.059,-989.08,0.294,-0.12
-314.0,-54.0,5739.0,225.0,0.0,0.0,0.0,43.632,-19.121,-991.51,0.278,-0.4
-314.0,-53.0,5740.0,225.0,0.0,0.0,0.0,44.189,-21.569,-993.81,0.287,-0.24
-314.0,-52.0,5741.0,225.0,0.0,0.0,0.0,46.73,-23.802,-990.75,0.281,-0.25
-314.0,-51.0,5742.0,225.0,0.0,0.0,0.0,46.49,-20.893,-990.54,0.283,-0.23
-313.0,-51.0,5743.0,225.0,0.0,0.0,0.0,43.775,-18.414,-993.74,0.289,-0.09
-314.0,-51.0,5744.0,225.0,0.0,0.0,0.0,44.058,-19.173,-993.4,0.284,-0.31
-313.0,-50.0,5744.0,225.0,0.0,0.0,0.0,44.557,-17.09,-992.96,0.283,-0.06
-314.0,-51.0,5745.0,225.0,0.0,0.0,0.0,44.348,-14.655,-993.21,0.285,-0.37
-314.0,-52.0,5746.0,225.0,0.0,0.0,0.0,44.373,-15.26,-993.16,0.139,-0.19
-314.0,-52.0,5747.0,225.0,0.0,0.0,0.0,44.318,-15.565,-993.18,0.189,-0.15
-315.0,-53.0,5748.0,225.0,0.0,0.0,0.0,44.324,-15.416,-993.14,0.126,-0.31
-314.0,-54.0,5749.0,225.0,0.0,0.0,0.0,44.377,-15.547,-995.55,0.208,-0.16
-315.0,-53.0,5750.0,225.0,0.0,0.0,0.0,44.37,-15.573,-995.5,0.359,-0.33
-316.0,-53.0,5751.0,225.0,0.0,0.0,0.0,44.283,-15.518,-992.57,0.268,-0.27
-315.0,-53.0,5751.0,225.0,0.0,0.0,0.0,44.299,-15.522,-992.86,0.336,-0.06
-315.0,-54.0,5752.0,225.0,0.0,0.0,0.0,44.333,-15.519,-993.33,0.262,-0.16
-314.0,-54.0,5753.0,225.0,0.0,0.0,0.0,44.417,-15.547,-995.51,0.251,-0.1
-314.0,-54.0,5754.0,225.0,0.0,0.0,0.0,44.485,-15.564,-997.9,0.3,-0.17
-315.0,-54.0,5755.0,225.0,0.0,0.0,0.0,44.509,-15.575,-999.67,0.294,-0.33
-314.0,-54.0,5756.0,225.0,0.0,0.0,0.0,44.457,-15.532,-999.34,0.279,-0.09
