theta,phi,psi,altitude,vx,vy,vz,accelx,accely,accelz,yaw1,yaw2
-27087.0,-8163.0,-30989.0,1182.0,-27087.0,-8163.0,-30989.0,-64.422,117.026,-990.28,-34.602,-148.18
-27788.0,-8226.0,-31181.0,1182.0,-27788.0,-8226.0,-31181.0,-100.083,96.713,-993.4,-31.287,-145.17
-28486.0,-8262.0,-31379.0,1182.0,-28486.0,-8262.0,-31379.0,-139.484,73.931,-996.87,-27.477,-143.57
-29183.0,-8273.0,-31583.0,1121.0,-29183.0,-8273.0,-31583.0,-175.726,56.193,-997.3,-23.939,-142.7
-29880.0,-8265.0,-31790.0,1121.0,-29880.0,-8265.0,-31790.0,-204.955,44.577,-998.0,-21.086,-142.29
-30579.0,-8240.0,-31996.0,1121.0,-30579.0,-8240.0,-31996.0,-227.76,36.895,-999.11,-18.601,-142.32
-31277.0,-8205.0,-32202.0,1121.0,-31277.0,-8205.0,-32202.0,-238.094,39.217,-995.18,-16.637,-142.45
-31972.0,-8169.0,-32405.0,1121.0,-31972.0,-8169.0,-32405.0,-238.368,50.129,-986.54,-16.164,-141.96
-32657.0,-8138.0,-32605.0,1121.0,-32657.0,-8138.0,-32605.0,-237.876,66.689,-976.7,-16.806,-140.61
-33328.0,-8120.0,-32802.0,1121.0,-33328.0,-8120.0,-32802.0,-235.878,86.173,-967.52,-18.901,-138.15
-33974.0,-8121.0,-32998.0,1121.0,-33974.0,-8121.0,-32998.0,-231.947,100.768,-960.69,-22.429,-133.59
-34592.0,-8139.0,-33194.0,1123.0,-34592.0,-8139.0,-33194.0,-225.061,113.408,-955.88,-25.953,-128.57
-35180.0,-8176.0,-33390.0,1123.0,-35180.0,-8176.0,-33390.0,-220.639,128.036,-950.56,-29.814,-122.86
-35738.0,-8230.0,-33585.0,1123.0,-35738.0,-8230.0,-33585.0,-226.905,137.119,-942.64,-32.999,-117.11
-36275.0,-8294.0,-33779.0,1123.0,-36275.0,-8294.0,-33779.0,-242.322,136.806,-934.93,-35.226,-112.55
-36789.0,-8363.0,-33973.0,1123.0,-36789.0,-8363.0,-33973.0,-263.021,132.178,-930.22,-36.458,-107.71
-37286.0,-8429.0,-34166.0,1123.0,-37286.0,-8429.0,-34166.0,-288.72,120.075,-930.03,-36.596,-103.95
-37767.0,-8486.0,-34360.0,1123.0,-37767.0,-8486.0,-34360.0,-311.75,101.038,-929.16,-35.53,-100.36
-38234.0,-8531.0,-34554.0,1123.0,-38234.0,-8531.0,-34554.0,-331.072,84.482,-922.68,-33.899,-97.21
-38691.0,-8562.0,-34745.0,1135.0,-38691.0,-8562.0,-34745.0,-349.644,70.14,-914.39,-31.429,-94.85
-39138.0,-8578.0,-34935.0,1135.0,-39138.0,-8578.0,-34935.0,-363.686,56.4,-909.42,-28.771,-92.86
-39574.0,-8585.0,-35120.0,1135.0,-39574.0,-8585.0,-35120.0,-370.538,45.868,-904.4,-26.57,-90.67
-39997.0,-8583.0,-35300.0,1135.0,-39997.0,-8583.0,-35300.0,-373.681,37.726,-896.26,-24.901,-88.19
-40400.0,-8580.0,-35477.0,1135.0,-40400.0,-8580.0,-35477.0,-376.114,32.759,-888.44,-24.288,-84.51
-40781.0,-8575.0,-35653.0,1135.0,-40781.0,-8575.0,-35653.0,-377.959,30.015,-878.73,-24.16,-79.93
-41137.0,-8570.0,-35830.0,1135.0,-41137.0,-8570.0,-35830.0,-382.038,30.17,-868.92,-24.367,-75.12
-41464.0,-8564.0,-36009.0,1135.0,-41464.0,-8564.0,-36009.0,-386.918,34.808,-862.16,-24.357,-69.17
-41766.0,-8558.0,-36190.0,1150.0,-41766.0,-8558.0,-36190.0,-390.513,38.19,-855.03,-24.601,-64.21
-42039.0,-8550.0,-36372.0,1150.0,-42039.0,-8550.0,-36372.0,-393.972,40.119,-849.81,-24.496,-58.34
-42288.0,-8542.0,-36557.0,1150.0,-42288.0,-8542.0,-36557.0,-399.799,42.29,-847.19,-24.983,-53.5
-42516.0,-8535.0,-36746.0,1150.0,-42516.0,-8535.0,-36746.0,-409.974,45.169,-841.64,-25.602,-48.97
-42722.0,-8529.0,-36937.0,1150.0,-42722.0,-8529.0,-36937.0,-423.111,47.282,-835.93,-26.302,-44.35
-42912.0,-8524.0,-37133.0,1150.0,-42912.0,-8524.0,-37133.0,-435.709,46.886,-830.84,-27.12,-40.89
-43084.0,-8518.0,-37330.0,1150.0,-43084.0,-8518.0,-37330.0,-447.261,45.08,-825.46,-27.193,-36.92
-43245.0,-8513.0,-37525.0,1150.0,-43245.0,-8513.0,-37525.0,-460.064,42.384,-820.15,-27.2,-34.59
-43539.0,-8503.0,-37894.0,1172.0,-43539.0,-8503.0,-37894.0,-484.919,43.226,-807.15,-25.358,-30.77
-43679.0,-8500.0,-38065.0,1172.0,-43679.0,-8500.0,-38065.0,-496.876,36.184,-802.16,-24.608,-29.91
-43816.0,-8500.0,-38224.0,1172.0,-43816.0,-8500.0,-38224.0,-507.909,31.016,-793.95,-23.807,-29.08
-43954.0,-8508.0,-38373.0,1172.0,-43954.0,-8508.0,-38373.0,-517.46,25.312,-788.43,-24.076,-29.41
-44089.0,-8522.0,-38513.0,1172.0,-44089.0,-8522.0,-38513.0,-526.687,17.029,-785.59,-24.029,-28.7
-44222.0,-8541.0,-38643.0,1172.0,-44222.0,-8541.0,-38643.0,-533.326,11.862,-781.96,-24.104,-28.48
-44351.0,-8562.0,-38767.0,1172.0,-44351.0,-8562.0,-38767.0,-535.32,6.332,-782.74,-23.949,-27.74
-44472.0,-8580.0,-38889.0,1191.0,-44472.0,-8580.0,-38889.0,-533.624,-2.956,-785.77,-22.969,-26.38
-44586.0,-8593.0,-39012.0,1191.0,-44586.0,-8593.0,-39012.0,-533.661,-10.301,-787.73,-22.422,-25.23
-44692.0,-8598.0,-39137.0,1191.0,-44692.0,-8598.0,-39137.0,-535.397,-13.184,-789.7,-21.308,-23.4
-44789.0,-8593.0,-39268.0,1191.0,-44789.0,-8593.0,-39268.0,-540.37,-17.074,-789.39,-20.194,-21.68
-44878.0,-8575.0,-39407.0,1191.0,-44878.0,-8575.0,-39407.0,-549.036,-21.671,-786.75,-18.997,-19.7
-44961.0,-8542.0,-39555.0,1191.0,-44961.0,-8542.0,-39555.0,-558.156,-20.843,-782.41,-17.173,-17.91
-45038.0,-8495.0,-39711.0,1191.0,-45038.0,-8495.0,-39711.0,-567.75,-15.08,-778.49,-15.286,-16.47
-45109.0,-8435.0,-39872.0,1191.0,-45109.0,-8435.0,-39872.0,-578.096,-9.779,-770.19,-13.301,-14.82
-45181.0,-8364.0,-40037.0,1224.0,-45181.0,-8364.0,-40037.0,-588.56,-4.543,-759.39,-11.426,-14.36
-45250.0,-8287.0,-40202.0,1224.0,-45250.0,-8287.0,-40202.0,-601.086,1.439,-749.84,-10.299,-13.5
-45322.0,-8211.0,-40364.0,1224.0,-45322.0,-8211.0,-40364.0,-613.014,7.65,-737.98,-9.755,-13.62
-45398.0,-8137.0,-40524.0,1224.0,-45398.0,-8137.0,-40524.0,-621.245,11.473,-725.97,-9.736,-14.09
-45477.0,-8068.0,-40680.0,1224.0,-45477.0,-8068.0,-40680.0,-626.364,12.486,-716.82,-10.199,-14.38
-45562.0,-8005.0,-40833.0,1224.0,-45562.0,-8005.0,-40833.0,-631.007,13.321,-709.79,-10.927,-15.64
-45649.0,-7949.0,-40983.0,1224.0,-45649.0,-7949.0,-40983.0,-632.647,13.3,-706.99,-11.777,-15.99
-45739.0,-7902.0,-41128.0,1224.0,-45739.0,-7902.0,-41128.0,-631.149,9.595,-706.0,-13.114,-16.83
-45829.0,-7861.0,-41272.0,1244.0,-45829.0,-7861.0,-41272.0,-632.288,4.99,-706.52,-14.157,-16.66
-45914.0,-7824.0,-41418.0,1244.0,-45914.0,-7824.0,-41418.0,-631.205,-0.008,-711.6,-15.55,-16.16
-45995.0,-7791.0,-41569.0,1244.0,-45995.0,-7791.0,-41569.0,-627.51,-5.587,-716.07,-16.943,-15.26
-46066.0,-7757.0,-41727.0,1244.0,-46066.0,-7757.0,-41727.0,-625.453,-8.723,-719.71,-18.152,-13.54
-46132.0,-7725.0,-41892.0,1244.0,-46132.0,-7725.0,-41892.0,-624.707,-11.51,-721.37,-19.594,-12.38
-46190.0,-7690.0,-42067.0,1244.0,-46190.0,-7690.0,-42067.0,-625.027,-14.239,-722.93,-20.338,-10.62
-46240.0,-7651.0,-42250.0,1244.0,-46240.0,-7651.0,-42250.0,-628.83,-16.032,-725.13,-20.869,-9.05
-46284.0,-7606.0,-42441.0,1244.0,-46284.0,-7606.0,-42441.0,-633.572,-17.068,-724.67,-20.742,-7.73
-46323.0,-7554.0,-42639.0,1236.0,-46323.0,-7554.0,-42639.0,-636.113,-17.172,-719.51,-20.553,-6.26
-46356.0,-7497.0,-42842.0,1236.0,-46356.0,-7497.0,-42842.0,-641.423,-14.14,-712.7,-19.978,-4.94
-46385.0,-7435.0,-43047.0,1236.0,-46385.0,-7435.0,-43047.0,-649.113,-10.553,-709.22,-19.325,-3.87
-46407.0,-7371.0,-43252.0,1236.0,-46407.0,-7371.0,-43252.0,-655.48,-9.155,-703.4,-18.834,-2.14
-46422.0,-7303.0,-43458.0,1236.0,-46422.0,-7303.0,-43458.0,-660.844,-9.368,-696.9,-18.208,-0.71
-46431.0,-7235.0,-43661.0,1236.0,-46431.0,-7235.0,-43661.0,-667.841,-8.923,-693.68,-17.734,0.77
-46434.0,-7169.0,-43862.0,1236.0,-46434.0,-7169.0,-43862.0,-676.524,-5.806,-690.2,-17.458,2.17
-46433.0,-7103.0,-44057.0,1236.0,-46433.0,-7103.0,-44057.0,-681.868,-3.194,-686.23,-16.766,2.93
-46428.0,-7040.0,-44246.0,1304.0,-46428.0,-7040.0,-44246.0,-686.759,0.801,-682.47,-16.425,3.94
-46420.0,-6981.0,-44430.0,1304.0,-46420.0,-6981.0,-44430.0,-694.636,4.369,-681.12,-16.297,4.65
-46405.0,-6925.0,-44610.0,1304.0,-46405.0,-6925.0,-44610.0,-702.134,4.349,-682.07,-16.318,5.87
-46385.0,-6874.0,-44788.0,1304.0,-46385.0,-6874.0,-44788.0,-706.806,6.482,-682.39,-17.131,7.16
-46358.0,-6829.0,-44966.0,1304.0,-46358.0,-6829.0,-44966.0,-709.366,10.922,-682.44,-17.994,8.52
-46323.0,-6789.0,-45145.0,1304.0,-46323.0,-6789.0,-45145.0,-712.62,14.301,-680.25,-19.041,10.14
-46284.0,-6754.0,-45325.0,1304.0,-46284.0,-6754.0,-45325.0,-716.368,17.082,-678.07,-20.148,11.18
-46240.0,-6721.0,-45508.0,1304.0,-46240.0,-6721.0,-45508.0,-720.069,17.208,-678.77,-20.959,12.23
-46194.0,-6691.0,-45694.0,1354.0,-46194.0,-6691.0,-45694.0,-724.115,14.786,-679.12,-21.832,12.9
-46147.0,-6663.0,-45882.0,1354.0,-46147.0,-6663.0,-45882.0,-728.421,12.922,-676.62,-22.806,13.23
-46099.0,-6637.0,-46075.0,1354.0,-46099.0,-6637.0,-46075.0,-735.135,9.081,-674.38,-23.816,13.69
-46052.0,-6612.0,-46273.0,1354.0,-46052.0,-6612.0,-46273.0,-741.462,2.867,-677.34,-25.058,13.82
-46003.0,-6588.0,-46476.0,1354.0,-46003.0,-6588.0,-46476.0,-742.119,-2.49,-682.3,-25.824,14.13
-45954.0,-6560.0,-46685.0,1354.0,-45954.0,-6560.0,-46685.0,-742.838,-7.04,-683.77,-26.159,14.24
-45903.0,-6530.0,-46897.0,1354.0,-45903.0,-6530.0,-46897.0,-746.56,-8.998,-685.32,-26.108,14.6
-45850.0,-6496.0,-47112.0,1354.0,-45850.0,-6496.0,-47112.0,-751.798,-8.389,-690.0,-25.671,15.27
-45793.0,-6459.0,-47330.0,1381.0,-45793.0,-6459.0,-47330.0,-756.569,-7.904,-691.97,-25.429,16.19
-45728.0,-6419.0,-47552.0,1381.0,-45728.0,-6419.0,-47552.0,-758.828,-7.204,-691.05,-25.381,17.81
-45657.0,-6377.0,-47777.0,1381.0,-45657.0,-6377.0,-47777.0,-761.708,-3.525,-688.6,-25.451,19.19
-45578.0,-6336.0,-48004.0,1381.0,-45578.0,-6336.0,-48004.0,-765.721,2.899,-681.76,-25.702,21.11
-45494.0,-6296.0,-48233.0,1381.0,-45494.0,-6296.0,-48233.0,-772.569,8.968,-673.05,-25.808,22.66
-45404.0,-6256.0,-48464.0,1381.0,-45404.0,-6256.0,-48464.0,-779.987,14.465,-667.65,-25.88,24.06
-45309.0,-6216.0,-48695.0,1381.0,-45309.0,-6216.0,-48695.0,-784.934,17.334,-664.62,-25.806,25.34
-45212.0,-6175.0,-48928.0,1381.0,-45212.0,-6175.0,-48928.0,-792.911,15.112,-660.85,-25.807,25.97
-45113.0,-6134.0,-49161.0,1425.0,-45113.0,-6134.0,-49161.0,-801.3,10.747,-656.76,-25.91,26.82
-45014.0,-6092.0,-49396.0,1425.0,-45014.0,-6092.0,-49396.0,-806.139,6.779,-655.2,-26.037,27.0
-44915.0,-6051.0,-49632.0,1425.0,-44915.0,-6051.0,-49632.0,-810.558,2.581,-658.32,-26.363,26.96
-44818.0,-6009.0,-49870.0,1425.0,-44818.0,-6009.0,-49870.0,-814.537,-4.329,-665.53,-26.662,26.67
-44726.0,-5967.0,-50110.0,1425.0,-44726.0,-5967.0,-50110.0,-817.506,-13.57,-674.11,-26.833,25.72
-44633.0,-5923.0,-50352.0,1425.0,-44633.0,-5923.0,-50352.0,-817.331,-19.936,-684.39,-27.087,25.63
-44540.0,-5876.0,-50596.0,1425.0,-44540.0,-5876.0,-50596.0,-814.232,-28.37,-694.35,-27.034,25.45
-44443.0,-5827.0,-50844.0,1425.0,-44443.0,-5827.0,-50844.0,-809.031,-37.396,-703.87,-26.999,25.9
-44341.0,-5775.0,-51094.0,1445.0,-44341.0,-5775.0,-51094.0,-804.072,-40.843,-713.69,-26.996,26.84
-44234.0,-5722.0,-51348.0,1445.0,-44234.0,-5722.0,-51348.0,-802.247,-44.447,-721.13,-27.091,27.59
-44120.0,-5665.0,-51606.0,1445.0,-44120.0,-5665.0,-51606.0,-800.927,-46.438,-726.26,-27.086,28.95
-43998.0,-5607.0,-51868.0,1445.0,-43998.0,-5607.0,-51868.0,-797.695,-45.545,-729.61,-27.318,30.43
-43867.0,-5546.0,-52136.0,1445.0,-43867.0,-5546.0,-52136.0,-795.73,-45.275,-733.29,-27.301,32.33
-43727.0,-5483.0,-52408.0,1445.0,-43727.0,-5483.0,-52408.0,-797.654,-45.03,-732.62,-27.452,34.17
-43578.0,-5421.0,-52684.0,1445.0,-43578.0,-5421.0,-52684.0,-800.124,-44.643,-729.45,-28.154,36.31
-43420.0,-5361.0,-52965.0,1445.0,-43420.0,-5361.0,-52965.0,-800.042,-42.171,-729.85,-28.739,38.06
-43255.0,-5305.0,-53247.0,1497.0,-43255.0,-5305.0,-53247.0,-800.49,-39.79,-727.86,-29.866,39.9
-43080.0,-5251.0,-53534.0,1497.0,-43080.0,-5251.0,-53534.0,-801.346,-40.492,-725.22,-30.629,41.74
-42900.0,-5199.0,-53822.0,1497.0,-42900.0,-5199.0,-53822.0,-801.529,-41.272,-725.75,-31.095,43.18
-42712.0,-5149.0,-54111.0,1497.0,-42712.0,-5149.0,-54111.0,-801.198,-39.501,-725.97,-31.532,44.73
-42518.0,-5103.0,-54399.0,1497.0,-42518.0,-5103.0,-54399.0,-802.622,-38.152,-725.78,-31.896,45.91
-42319.0,-5062.0,-54685.0,1497.0,-42319.0,-5062.0,-54685.0,-805.732,-39.628,-725.74,-32.543,47.08
-42115.0,-5027.0,-54968.0,1497.0,-42115.0,-5027.0,-54968.0,-807.59,-40.793,-728.04,-33.099,48.3
-41906.0,-4998.0,-55247.0,1497.0,-41906.0,-4998.0,-55247.0,-811.008,-41.166,-730.36,-33.794,49.26
-41693.0,-4976.0,-55520.0,1900.0,-41693.0,-4976.0,-55520.0,-814.239,-39.096,-732.15,-34.122,50.23
-41478.0,-4962.0,-55787.0,1900.0,-41478.0,-4962.0,-55787.0,-816.688,-36.793,-734.19,-34.82,50.81
-41259.0,-4959.0,-56046.0,1900.0,-41259.0,-4959.0,-56046.0,-817.092,-37.149,-733.69,-35.657,51.41
-41038.0,-4967.0,-56297.0,1900.0,-41038.0,-4967.0,-56297.0,-815.061,-37.236,-735.6,-36.788,51.91
-40815.0,-4987.0,-56541.0,1900.0,-40815.0,-4987.0,-56541.0,-813.844,-39.164,-735.6,-38.2,52.35
-40590.0,-5017.0,-56778.0,1900.0,-40590.0,-5017.0,-56778.0,-813.126,-43.613,-732.44,-39.126,52.83
-40364.0,-5055.0,-57009.0,1900.0,-40364.0,-5055.0,-57009.0,-814.667,-45.331,-730.29,-39.841,53.14
-40137.0,-5098.0,-57232.0,1900.0,-40137.0,-5098.0,-57232.0,-816.368,-47.036,-725.96,-40.024,53.69
-39908.0,-5145.0,-57451.0,1987.0,-39908.0,-5145.0,-57451.0,-812.799,-52.089,-723.79,-40.002,54.12
-39676.0,-5193.0,-57666.0,1987.0,-39676.0,-5193.0,-57666.0,-809.685,-59.214,-722.1,-39.889,54.67
-39443.0,-5239.0,-57882.0,1987.0,-39443.0,-5239.0,-57882.0,-810.169,-67.799,-717.26,-39.696,55.29
-39207.0,-5281.0,-58098.0,1987.0,-39207.0,-5281.0,-58098.0,-810.209,-75.661,-715.2,-39.013,55.96
-38968.0,-5318.0,-58317.0,1987.0,-38968.0,-5318.0,-58317.0,-809.961,-80.326,-713.55,-38.125,56.97
-38724.0,-5345.0,-58538.0,1987.0,-38724.0,-5345.0,-58538.0,-812.458,-84.66,-711.23,-36.691,58.29
-38472.0,-5362.0,-58764.0,1987.0,-38472.0,-5362.0,-58764.0,-812.523,-89.201,-713.93,-35.23,59.91
-38210.0,-5370.0,-58995.0,1987.0,-38210.0,-5370.0,-58995.0,-807.418,-91.07,-721.16,-33.804,61.87
-37938.0,-5366.0,-59233.0,1187.0,-37938.0,-5366.0,-59233.0,-805.896,-92.634,-724.94,-32.264,64.21
-37654.0,-5351.0,-59477.0,1187.0,-37654.0,-5351.0,-59477.0,-805.535,-94.494,-725.76,-30.795,66.76
-37356.0,-5325.0,-59727.0,1187.0,-37356.0,-5325.0,-59727.0,-804.474,-93.97,-729.92,-28.992,69.7
-37043.0,-5289.0,-59983.0,1187.0,-37043.0,-5289.0,-59983.0,-806.415,-89.064,-734.42,-27.314,72.84
-36715.0,-5242.0,-60242.0,1187.0,-36715.0,-5242.0,-60242.0,-806.172,-85.071,-738.12,-25.377,75.98
-36371.0,-5186.0,-60505.0,1187.0,-36371.0,-5186.0,-60505.0,-803.369,-82.345,-742.0,-23.637,79.27
-36013.0,-5125.0,-60770.0,1187.0,-36013.0,-5125.0,-60770.0,-801.504,-72.436,-743.56,-22.279,82.38
-35639.0,-5062.0,-61033.0,1187.0,-35639.0,-5062.0,-61033.0,-799.84,-60.744,-745.24,-21.214,85.54
-35248.0,-5003.0,-61292.0,1185.0,-35248.0,-5003.0,-61292.0,-797.787,-48.696,-749.77,-20.925,88.85
-34841.0,-4952.0,-61546.0,1185.0,-34841.0,-4952.0,-61546.0,-795.395,-32.158,-754.1,-21.178,92.1
-34418.0,-4914.0,-61791.0,1185.0,-34418.0,-4914.0,-61791.0,-792.691,-16.466,-755.52,-22.048,95.43
-33978.0,-4891.0,-62026.0,1185.0,-33978.0,-4891.0,-62026.0,-789.486,-2.188,-759.55,-23.437,98.54
-33525.0,-4887.0,-62251.0,1185.0,-33525.0,-4887.0,-62251.0,-785.773,9.366,-766.32,-25.256,101.25
-33058.0,-4902.0,-62463.0,1185.0,-33058.0,-4902.0,-62463.0,-781.853,17.912,-769.84,-27.064,103.82
-32580.0,-4934.0,-62663.0,1185.0,-32580.0,-4934.0,-62663.0,-777.658,26.414,-773.13,-28.855,106.09
-32091.0,-4980.0,-62851.0,1185.0,-32091.0,-4980.0,-62851.0,-773.196,29.878,-777.01,-30.061,108.3
-31592.0,-5036.0,-63029.0,1175.0,-31592.0,-5036.0,-63029.0,-770.888,26.022,-780.51,-30.773,110.34
-31083.0,-5099.0,-63199.0,1175.0,-31083.0,-5099.0,-63199.0,-768.26,21.182,-784.05,-31.052,112.26
-30565.0,-5163.0,-63362.0,1175.0,-30565.0,-5163.0,-63362.0,-764.855,18.048,-787.55,-30.672,114.36
-30036.0,-5227.0,-63520.0,1175.0,-30036.0,-5227.0,-63520.0,-761.612,11.275,-788.61,-29.915,116.48
-29495.0,-5284.0,-63677.0,1175.0,-29495.0,-5284.0,-63677.0,-760.708,3.542,-787.34,-28.533,119.39
-28941.0,-5332.0,-63834.0,1175.0,-28941.0,-5332.0,-63834.0,-762.186,-1.667,-786.72,-26.722,122.36
-28373.0,-5369.0,-63995.0,1175.0,-28373.0,-5369.0,-63995.0,-763.342,-10.144,-786.34,-24.743,125.61
-27790.0,-5392.0,-64159.0,1175.0,-27790.0,-5392.0,-64159.0,-766.992,-15.149,-785.89,-22.266,128.93
-27196.0,-5400.0,-64329.0,1167.0,-27196.0,-5400.0,-64329.0,-771.294,-18.431,-787.92,-19.516,131.8
-26591.0,-5389.0,-64505.0,1167.0,-26591.0,-5389.0,-64505.0,-773.269,-24.645,-789.76,-16.133,134.66
-25973.0,-5355.0,-64688.0,1167.0,-25973.0,-5355.0,-64688.0,-778.541,-27.913,-788.8,-12.063,137.63
-25345.0,-5299.0,-64879.0,1167.0,-25345.0,-5299.0,-64879.0,-786.738,-26.43,-790.62,-7.838,140.47
-24704.0,-5220.0,-65077.0,1167.0,-24704.0,-5220.0,-65077.0,-791.701,-23.87,-795.21,-3.272,143.75
-24047.0,-5118.0,-65283.0,1167.0,-24047.0,-5118.0,-65283.0,-793.799,-24.906,-801.24,0.797,147.26
-23377.0,-4998.0,-65495.0,1167.0,-23377.0,-4998.0,-65495.0,-796.203,-24.109,-809.39,4.683,150.3
-22692.0,-4861.0,-65712.0,1167.0,-22692.0,-4861.0,-65712.0,-796.159,-20.596,-817.09,7.967,153.64
-21993.0,-4714.0,-65932.0,1168.0,-21993.0,-4714.0,-65932.0,-790.932,-16.12,-826.77,10.432,156.6
-21279.0,-4560.0,-66154.0,1168.0,-21279.0,-4560.0,-66154.0,-781.349,-10.267,-838.88,12.498,159.45
-20546.0,-4403.0,-66375.0,1168.0,-20546.0,-4403.0,-66375.0,-765.554,-5.678,-850.18,13.773,163.11
-19793.0,-4247.0,-66594.0,1168.0,-19793.0,-4247.0,-66594.0,-745.761,-0.091,-861.15,14.654,166.75
-19014.0,-4094.0,-66808.0,1168.0,-19014.0,-4094.0,-66808.0,-720.218,9.176,-869.82,15.055,171.33
-18202.0,-3948.0,-67018.0,1168.0,-18202.0,-3948.0,-67018.0,-693.051,19.011,-876.1,15.014,177.27
-17357.0,-3809.0,-67221.0,1168.0,-17357.0,-3809.0,-67221.0,-665.118,26.954,-882.91,14.671,183.54
-16469.0,-3678.0,-67416.0,1168.0,-16469.0,-3678.0,-67416.0,-635.327,34.036,-887.53,14.413,191.25
-15541.0,-3557.0,-67605.0,1161.0,-15541.0,-3557.0,-67605.0,-611.778,38.71,-887.28,13.824,199.07
-14575.0,-3444.0,-67784.0,1161.0,-14575.0,-3444.0,-67784.0,-596.731,41.216,-882.94,13.221,206.6
-13571.0,-3338.0,-67954.0,1161.0,-13571.0,-3338.0,-67954.0,-590.844,44.612,-879.59,13.028,214.26
-12538.0,-3238.0,-68111.0,1161.0,-12538.0,-3238.0,-68111.0,-591.748,41.864,-876.77,13.038,220.78
-11478.0,-3137.0,-68257.0,1161.0,-11478.0,-3137.0,-68257.0,-596.095,35.144,-875.74,14.153,226.6
-10398.0,-3031.0,-68388.0,1161.0,-10398.0,-3031.0,-68388.0,-604.123,26.302,-876.96,16.034,231.2
-9303.0,-2914.0,-68506.0,1161.0,-9303.0,-2914.0,-68506.0,-615.313,11.888,-879.74,18.708,234.97
-7100.0,-2641.0,-68695.0,1171.0,-7100.0,-2641.0,-68695.0,-629.805,-17.849,-897.94,24.98,238.17
-4902.0,-2295.0,-68824.0,1171.0,-4902.0,-2295.0,-68824.0,-642.073,-50.717,-922.49,33.278,237.73
-3805.0,-2083.0,-68869.0,1171.0,-3805.0,-2083.0,-68869.0,-643.077,-64.227,-936.8,38.827,238.51
-2713.0,-1846.0,-68899.0,1171.0,-2713.0,-1846.0,-68899.0,-637.455,-74.753,-953.85,44.097,237.68
-1620.0,-1580.0,-68917.0,1171.0,-1620.0,-1580.0,-68917.0,-632.005,-88.166,-968.09,49.625,238.35
-527.0,-1289.0,-68921.0,1171.0,-527.0,-1289.0,-68921.0,-625.261,-97.001,-977.69,54.68,238.52
564.0,-975.0,-68912.0,1171.0,564.0,-975.0,-68912.0,-614.266,-96.234,-988.46,59.32,238.64
1662.0,-641.0,-68891.0,1127.0,1662.0,-641.0,-68891.0,-598.593,-95.064,-995.37,63.596,239.84
2766.0,-287.0,-68856.0,1127.0,2766.0,-287.0,-68856.0,-578.831,-93.828,-997.21,67.554,241.24
3882.0,83.0,-68806.0,1127.0,3882.0,83.0,-68806.0,-557.6,-86.462,-1000.46,71.039,243.52
5012.0,464.0,-68742.0,1127.0,5012.0,464.0,-68742.0,-534.491,-76.266,-1004.27,73.328,246.18
6160.0,856.0,-68663.0,1127.0,6160.0,856.0,-68663.0,-508.838,-66.433,-1007.62,75.26,249.64
7322.0,1251.0,-68570.0,1127.0,7322.0,1251.0,-68570.0,-480.55,-56.028,-1010.87,76.067,252.44
8501.0,1649.0,-68462.0,1127.0,8501.0,1649.0,-68462.0,-451.494,-44.739,-1016.35,76.237,255.74
9693.0,2048.0,-68338.0,1127.0,9693.0,2048.0,-68338.0,-423.666,-34.937,-1024.06,76.213,258.25
10895.0,2446.0,-68199.0,481.0,10895.0,2446.0,-68199.0,-398.369,-31.158,-1035.72,75.33,260.32
12105.0,2845.0,-68042.0,481.0,12105.0,2845.0,-68042.0,-372.474,-27.803,-1049.24,74.479,262.18
13319.0,3243.0,-67869.0,481.0,13319.0,3243.0,-67869.0,-345.514,-25.927,-1056.92,73.262,262.94
14535.0,3641.0,-67677.0,481.0,14535.0,3641.0,-67677.0,-317.775,-31.483,-1062.02,71.664,263.68
16961.0,4441.0,-67243.0,481.0,16961.0,4441.0,-67243.0,-258.035,-45.932,-1077.14,68.874,263.07
18168.0,4849.0,-67002.0,481.0,18168.0,4849.0,-67002.0,-233.978,-57.152,-1078.37,68.41,262.29
20558.0,5712.0,-66480.0,487.0,20558.0,5712.0,-66480.0,-189.1,-84.383,-1081.51,70.713,259.86
21739.0,6172.0,-66204.0,487.0,21739.0,6172.0,-66204.0,-172.51,-92.74,-1080.08,72.823,258.45
22907.0,6646.0,-65920.0,487.0,22907.0,6646.0,-65920.0,-154.972,-97.809,-1077.15,74.261,256.31
24066.0,7129.0,-65633.0,487.0,24066.0,7129.0,-65633.0,-134.589,-97.382,-1077.12,74.944,254.55
25213.0,7615.0,-65343.0,487.0,25213.0,7615.0,-65343.0,-114.961,-93.784,-1080.02,74.69,252.62
26349.0,8099.0,-65053.0,487.0,26349.0,8099.0,-65053.0,-98.847,-85.419,-1079.94,73.66,250.64
27477.0,8576.0,-64764.0,487.0,27477.0,8576.0,-64764.0,-80.575,-72.573,-1082.14,71.989,249.11
28591.0,9042.0,-64475.0,487.0,28591.0,9042.0,-64475.0,-57.67,-59.244,-1084.98,69.347,246.46
29692.0,9492.0,-64188.0,502.0,29692.0,9492.0,-64188.0,-36.337,-45.5,-1082.29,66.036,243.85
30776.0,9926.0,-63901.0,502.0,30776.0,9926.0,-63901.0,-16.247,-36.29,-1080.02,62.202,240.5
31843.0,10340.0,-63618.0,502.0,31843.0,10340.0,-63618.0,6.463,-29.615,-1081.08,58.068,236.82
32895.0,10736.0,-63337.0,502.0,32895.0,10736.0,-63337.0,31.437,-26.483,-1084.08,54.206,233.84
33929.0,11116.0,-63059.0,502.0,33929.0,11116.0,-63059.0,53.655,-31.955,-1086.59,50.321,230.07
34946.0,11475.0,-62785.0,502.0,34946.0,11475.0,-62785.0,73.472,-39.551,-1086.49,45.91,226.57
35945.0,11815.0,-62516.0,502.0,35945.0,11815.0,-62516.0,96.641,-50.279,-1081.89,41.418,222.81
36926.0,12131.0,-62253.0,502.0,36926.0,12131.0,-62253.0,120.027,-62.394,-1070.78,36.533,218.54
37892.0,12425.0,-61998.0,523.0,37892.0,12425.0,-61998.0,140.452,-74.707,-1060.78,32.064,215.03
38840.0,12700.0,-61753.0,523.0,38840.0,12700.0,-61753.0,158.779,-90.395,-1052.04,28.444,210.89
39769.0,12959.0,-61518.0,523.0,39769.0,12959.0,-61518.0,174.83,-106.408,-1035.58,25.562,206.52
40679.0,13209.0,-61293.0,523.0,40679.0,13209.0,-61293.0,188.559,-125.102,-1017.04,23.955,202.01
41563.0,13451.0,-61081.0,523.0,41563.0,13451.0,-61081.0,197.724,-142.644,-1000.2,23.039,196.33
42422.0,13689.0,-60883.0,523.0,42422.0,13689.0,-60883.0,204.717,-153.431,-980.99,23.234,190.65
43252.0,13924.0,-60698.0,523.0,43252.0,13924.0,-60698.0,210.357,-161.442,-964.2,23.964,184.29
44048.0,14157.0,-60529.0,523.0,44048.0,14157.0,-60529.0,216.519,-167.107,-952.67,25.049,177.06
44807.0,14391.0,-60372.0,408.0,44807.0,14391.0,-60372.0,223.562,-169.55,-942.71,26.755,169.45
45527.0,14621.0,-60229.0,408.0,45527.0,14621.0,-60229.0,231.031,-166.878,-934.42,27.492,161.07
46204.0,14847.0,-60095.0,408.0,46204.0,14847.0,-60095.0,244.049,-159.466,-928.29,28.241,152.29
46838.0,15068.0,-59969.0,408.0,46838.0,15068.0,-59969.0,259.958,-152.968,-921.73,28.222,143.31
47429.0,15282.0,-59846.0,408.0,47429.0,15282.0,-59846.0,277.696,-142.887,-914.94,27.258,134.55
47976.0,15487.0,-59725.0,408.0,47976.0,15487.0,-59725.0,298.137,-126.606,-908.47,25.946,125.79
48482.0,15682.0,-59602.0,408.0,48482.0,15682.0,-59602.0,315.821,-110.83,-902.11,23.838,117.38
48949.0,15866.0,-59475.0,408.0,48949.0,15866.0,-59475.0,332.854,-97.891,-891.01,21.176,109.67
49378.0,16041.0,-59340.0,349.0,49378.0,16041.0,-59340.0,354.559,-86.776,-875.14,18.214,101.86
49771.0,16211.0,-59195.0,349.0,49771.0,16211.0,-59195.0,372.533,-77.256,-858.12,15.586,94.68
50128.0,16378.0,-59037.0,349.0,50128.0,16378.0,-59037.0,381.22,-73.698,-839.39,12.936,87.7
50448.0,16549.0,-58866.0,349.0,50448.0,16549.0,-58866.0,387.29,-77.842,-818.34,11.256,80.63
50732.0,16727.0,-58680.0,349.0,50732.0,16727.0,-58680.0,393.608,-85.729,-799.94,10.154,73.94
50981.0,16912.0,-58483.0,349.0,50981.0,16912.0,-58483.0,399.039,-94.292,-784.08,9.637,67.06
51194.0,17108.0,-58278.0,349.0,51194.0,17108.0,-58278.0,403.721,-105.83,-767.28,9.87,60.06
51371.0,17311.0,-58067.0,349.0,51371.0,17311.0,-58067.0,408.269,-117.838,-752.41,10.324,53.14
51515.0,17518.0,-57857.0,350.0,51515.0,17518.0,-57857.0,415.537,-127.239,-742.29,10.798,46.52
51629.0,17726.0,-57650.0,350.0,51629.0,17726.0,-57650.0,425.732,-137.31,-738.46,11.372,40.48
51716.0,17934.0,-57450.0,350.0,51716.0,17934.0,-57450.0,436.035,-146.13,-738.33,12.063,34.92
51780.0,18135.0,-57260.0,350.0,51780.0,18135.0,-57260.0,449.11,-148.924,-741.6,12.46,30.12
51824.0,18326.0,-57085.0,350.0,51824.0,18326.0,-57085.0,465.013,-147.085,-744.29,12.703,25.7
51853.0,18502.0,-56926.0,350.0,51853.0,18502.0,-56926.0,480.365,-144.335,-748.54,12.508,21.94
51871.0,18657.0,-56785.0,350.0,51871.0,18657.0,-56785.0,495.204,-140.841,-755.48,11.242,19.22
51881.0,18789.0,-56663.0,350.0,51881.0,18789.0,-56663.0,507.045,-138.466,-756.9,9.671,16.87
51889.0,18897.0,-56556.0,358.0,51889.0,18897.0,-56556.0,518.058,-137.719,-755.69,7.326,15.71
51898.0,18981.0,-56465.0,358.0,51898.0,18981.0,-56465.0,528.806,-140.592,-755.65,4.922,14.91
51908.0,19045.0,-56386.0,358.0,51908.0,19045.0,-56386.0,533.672,-144.697,-753.28,2.77,14.63
51921.0,19087.0,-56320.0,358.0,51921.0,19087.0,-56320.0,535.605,-144.587,-748.61,0.497,14.51
51937.0,19109.0,-56267.0,358.0,51937.0,19109.0,-56267.0,535.641,-143.095,-739.76,-1.56,14.25
51954.0,19114.0,-56224.0,358.0,51954.0,19114.0,-56224.0,535.515,-145.204,-728.88,-3.7,13.93
51972.0,19098.0,-56190.0,358.0,51972.0,19098.0,-56190.0,536.063,-149.594,-721.28,-6.26,13.34
51989.0,19064.0,-56165.0,358.0,51989.0,19064.0,-56165.0,536.894,-154.999,-713.67,-8.783,12.84
52006.0,19008.0,-56150.0,392.0,52006.0,19008.0,-56150.0,541.024,-159.188,-705.38,-11.648,11.99
52021.0,18930.0,-56144.0,392.0,52021.0,18930.0,-56144.0,546.292,-159.905,-699.78,-14.773,11.11
52034.0,18831.0,-56146.0,392.0,52034.0,18831.0,-56146.0,552.281,-157.872,-696.49,-17.764,10.04
52042.0,18708.0,-56157.0,392.0,52042.0,18708.0,-56157.0,559.702,-155.98,-695.01,-21.016,8.7
52046.0,18567.0,-56174.0,392.0,52046.0,18567.0,-56174.0,572.841,-159.136,-697.72,-23.851,7.59
52047.0,18408.0,-56197.0,392.0,52047.0,18408.0,-56197.0,589.031,-164.533,-702.27,-26.681,6.53
52045.0,18233.0,-56223.0,392.0,52045.0,18233.0,-56223.0,599.641,-166.505,-703.67,-29.099,5.5
52040.0,18047.0,-56252.0,392.0,52040.0,18047.0,-56252.0,608.029,-168.596,-705.02,-31.207,4.96
52033.0,17853.0,-56283.0,433.0,52033.0,17853.0,-56283.0,617.5,-173.721,-706.93,-32.658,4.27
52025.0,17654.0,-56314.0,433.0,52025.0,17654.0,-56314.0,621.798,-178.249,-706.29,-33.665,3.86
52014.0,17454.0,-56345.0,433.0,52014.0,17454.0,-56345.0,625.57,-184.271,-705.7,-34.084,3.43
52001.0,17257.0,-56374.0,433.0,52001.0,17257.0,-56374.0,629.745,-192.165,-703.15,-33.899,2.76
51985.0,17067.0,-56400.0,433.0,51985.0,17067.0,-56400.0,630.453,-196.186,-695.78,-33.461,2.09
51963.0,16885.0,-56421.0,433.0,51963.0,16885.0,-56421.0,630.982,-196.898,-689.17,-32.389,1.07
51936.0,16714.0,-56436.0,433.0,51936.0,16714.0,-56436.0,627.162,-200.027,-685.76,-31.387,0.15
51901.0,16557.0,-56443.0,433.0,51901.0,16557.0,-56443.0,623.192,-207.39,-679.48,-30.25,-1.03
51859.0,16411.0,-56442.0,447.0,51859.0,16411.0,-56442.0,623.086,-213.706,-675.16,-29.426,-2.29
51810.0,16273.0,-56433.0,447.0,51810.0,16273.0,-56433.0,625.391,-214.66,-676.39,-29.023,-3.48
51752.0,16141.0,-56418.0,447.0,51752.0,16141.0,-56418.0,627.714,-216.331,-676.75,-28.922,-5.01
51689.0,16012.0,-56395.0,447.0,51689.0,16012.0,-56395.0,632.415,-219.538,-676.29,-29.466,-5.92
51622.0,15887.0,-56364.0,447.0,51622.0,15887.0,-56364.0,639.979,-218.529,-676.25,-30.146,-6.62
51552.0,15761.0,-56325.0,447.0,51552.0,15761.0,-56325.0,647.079,-216.465,-676.19,-31.357,-7.03
51485.0,15638.0,-56276.0,447.0,51485.0,15638.0,-56276.0,656.066,-216.593,-673.71,-32.69,-6.52
51420.0,15516.0,-56216.0,447.0,51420.0,15516.0,-56216.0,662.444,-215.492,-668.92,-33.946,-6.04
51358.0,15396.0,-56145.0,547.0,51358.0,15396.0,-56145.0,667.853,-215.356,-667.14,-35.496,-5.2
51300.0,15279.0,-56062.0,547.0,51300.0,15279.0,-56062.0,673.278,-216.291,-663.18,-36.611,-4.38
51243.0,15167.0,-55968.0,547.0,51243.0,15167.0,-55968.0,675.1,-212.361,-653.91,-37.555,-4.11
51186.0,15060.0,-55864.0,547.0,51186.0,15060.0,-55864.0,674.164,-210.906,-647.93,-38.078,-4.06
51125.0,14966.0,-55747.0,547.0,51125.0,14966.0,-55747.0,670.993,-216.984,-642.54,-37.563,-4.38
51060.0,14884.0,-55620.0,547.0,51060.0,14884.0,-55620.0,670.546,-221.175,-636.21,-36.954,-5.16
50988.0,14816.0,-55481.0,547.0,50988.0,14816.0,-55481.0,668.657,-223.327,-635.02,-35.886,-6.21
50908.0,14760.0,-55333.0,547.0,50908.0,14760.0,-55333.0,664.526,-227.323,-636.03,-35.161,-7.29
50820.0,14711.0,-55177.0,544.0,50820.0,14711.0,-55177.0,664.621,-230.043,-635.93,-34.979,-8.79
50724.0,14667.0,-55013.0,544.0,50724.0,14667.0,-55013.0,665.916,-229.032,-635.77,-35.093,-10.06
50622.0,14623.0,-54845.0,544.0,50622.0,14623.0,-54845.0,667.415,-227.739,-635.74,-35.724,-11.22
50513.0,14579.0,-54672.0,544.0,50513.0,14579.0,-54672.0,669.846,-227.066,-638.12,-36.504,-12.55
50401.0,14531.0,-54494.0,544.0,50401.0,14531.0,-54494.0,674.817,-224.451,-640.42,-38.016,-13.03
50288.0,14476.0,-54312.0,544.0,50288.0,14476.0,-54312.0,684.408,-220.575,-642.15,-39.664,-13.32
50177.0,14411.0,-54127.0,544.0,50177.0,14411.0,-54127.0,692.776,-216.076,-641.78,-42.248,-13.01
50073.0,14335.0,-53938.0,544.0,50073.0,14335.0,-53938.0,699.417,-212.999,-636.61,-44.896,-11.92
49975.0,14248.0,-53746.0,587.0,49975.0,14248.0,-53746.0,705.622,-211.508,-634.46,-47.527,-10.81
49886.0,14153.0,-53549.0,587.0,49886.0,14153.0,-53549.0,710.691,-213.049,-633.04,-49.951,-9.3
49806.0,14055.0,-53348.0,587.0,49806.0,14055.0,-53348.0,714.653,-217.362,-628.2,-51.263,-7.57
49735.0,13954.0,-53144.0,587.0,49735.0,13954.0,-53144.0,715.377,-221.164,-623.82,-52.397,-6.08
49671.0,13855.0,-52935.0,587.0,49671.0,13855.0,-52935.0,715.561,-228.991,-619.75,-52.84,-4.74
49612.0,13759.0,-52724.0,587.0,49612.0,13759.0,-52724.0,711.208,-240.547,-613.1,-52.969,-3.87
49553.0,13667.0,-52510.0,587.0,49553.0,13667.0,-52510.0,702.03,-251.843,-604.2,-52.766,-3.81
49492.0,13583.0,-52294.0,587.0,49492.0,13583.0,-52294.0,692.363,-265.826,-598.19,-51.771,-4.23
49424.0,13508.0,-52079.0,669.0,49424.0,13508.0,-52079.0,684.303,-280.524,-594.83,-50.397,-5.48
49347.0,13442.0,-51864.0,669.0,49347.0,13442.0,-51864.0,677.705,-293.138,-593.1,-48.561,-7.37
49257.0,13385.0,-51651.0,669.0,49257.0,13385.0,-51651.0,672.38,-302.495,-593.53,-46.673,-9.89
49152.0,13336.0,-51441.0,669.0,49152.0,13336.0,-51441.0,670.895,-309.224,-595.95,-44.699,-12.7
49032.0,13296.0,-51234.0,669.0,49032.0,13296.0,-51234.0,668.237,-313.988,-598.1,-42.718,-15.75
48897.0,13261.0,-51030.0,669.0,48897.0,13261.0,-51030.0,666.037,-316.906,-599.96,-41.118,-18.78
48748.0,13229.0,-50829.0,669.0,48748.0,13229.0,-50829.0,670.078,-313.806,-604.45,-39.831,-21.6
48586.0,13195.0,-50630.0,669.0,48586.0,13195.0,-50630.0,676.179,-304.841,-606.56,-39.659,-24.39
48415.0,13157.0,-50434.0,653.0,48415.0,13157.0,-50434.0,683.231,-293.556,-605.84,-40.059,-26.51
48236.0,13112.0,-50237.0,653.0,48236.0,13112.0,-50237.0,689.419,-279.754,-606.02,-40.998,-28.32
48051.0,13057.0,-50040.0,653.0,48051.0,13057.0,-50040.0,694.063,-267.711,-604.01,-42.686,-29.5
47863.0,12992.0,-49841.0,653.0,47863.0,12992.0,-49841.0,697.57,-257.594,-599.49,-44.693,-30.37
47674.0,12913.0,-49640.0,653.0,47674.0,12913.0,-49640.0,699.616,-243.551,-593.25,-47.512,-31.02
47484.0,12818.0,-49437.0,653.0,47484.0,12818.0,-49437.0,702.708,-230.726,-584.89,-50.778,-31.29
47296.0,12709.0,-49230.0,653.0,47296.0,12709.0,-49230.0,704.734,-224.444,-579.22,-53.879,-31.35
47110.0,12588.0,-49019.0,653.0,47110.0,12588.0,-49019.0,705.485,-222.877,-576.12,-57.08,-31.01
46926.0,12456.0,-48803.0,669.0,46926.0,12456.0,-48803.0,706.02,-222.684,-572.2,-59.733,-30.57
46744.0,12315.0,-48582.0,669.0,46744.0,12315.0,-48582.0,706.418,-223.977,-570.37,-62.156,-30.39
46562.0,12169.0,-48357.0,669.0,46562.0,12169.0,-48357.0,704.588,-233.797,-568.47,-64.097,-30.32
46380.0,12021.0,-48128.0,669.0,46380.0,12021.0,-48128.0,700.756,-244.396,-566.01,-65.161,-30.64
46194.0,11873.0,-47897.0,669.0,46194.0,11873.0,-47897.0,698.155,-254.221,-566.13,-65.556,-31.2
46005.0,11731.0,-47663.0,669.0,46005.0,11731.0,-47663.0,696.515,-270.031,-565.97,-65.11,-31.87
45812.0,11596.0,-47429.0,669.0,45812.0,11596.0,-47429.0,693.184,-283.775,-567.75,-64.028,-32.82
45612.0,11469.0,-47195.0,669.0,45612.0,11469.0,-47195.0,688.407,-294.812,-569.77,-62.489,-34.16
45405.0,11354.0,-46960.0,688.0,45405.0,11354.0,-46960.0,687.293,-307.554,-571.1,-60.452,-35.73
45187.0,11250.0,-46726.0,688.0,45187.0,11250.0,-46726.0,687.16,-319.194,-575.13,-58.238,-37.76
44960.0,11158.0,-46492.0,688.0,44960.0,11158.0,-46492.0,686.715,-327.296,-576.73,-56.055,-39.81
44725.0,11074.0,-46259.0,688.0,44725.0,11074.0,-46259.0,689.263,-328.302,-578.01,-54.113,-41.6
44482.0,10999.0,-46025.0,688.0,44482.0,10999.0,-46025.0,694.276,-327.791,-580.09,-52.47,-43.31
44234.0,10930.0,-45790.0,688.0,44234.0,10930.0,-45790.0,698.659,-326.815,-579.53,-51.203,-44.48
43980.0,10866.0,-45552.0,688.0,43980.0,10866.0,-45552.0,702.56,-321.954,-579.27,-50.346,-45.75
43723.0,10804.0,-45312.0,688.0,43723.0,10804.0,-45312.0,708.596,-318.881,-579.44,-50.187,-46.74
43462.0,10740.0,-45068.0,715.0,43462.0,10740.0,-45068.0,711.53,-313.157,-577.12,-50.802,-47.65
42933.0,10601.0,-44563.0,715.0,42933.0,10601.0,-44563.0,715.024,-303.923,-570.9,-53.511,-48.72
42665.0,10524.0,-44302.0,715.0,42665.0,10524.0,-44302.0,715.982,-300.553,-569.52,-54.99,-49.25
42396.0,10443.0,-44035.0,715.0,42396.0,10443.0,-44035.0,716.559,-299.904,-567.36,-56.577,-49.51
42125.0,10358.0,-43762.0,715.0,42125.0,10358.0,-43762.0,714.523,-302.992,-567.81,-58.03,-49.84
41854.0,10270.0,-43484.0,715.0,41854.0,10270.0,-43484.0,712.467,-307.776,-568.09,-59.191,-50.04
41583.0,10181.0,-43202.0,715.0,41583.0,10181.0,-43202.0,711.014,-314.452,-567.79,-60.057,-50.0
41312.0,10094.0,-42918.0,749.0,41312.0,10094.0,-42918.0,711.945,-322.503,-569.99,-60.09,-50.03
41042.0,10011.0,-42632.0,749.0,41042.0,10011.0,-42632.0,713.207,-336.376,-574.31,-59.513,-49.93
40774.0,9935.0,-42347.0,749.0,40774.0,9935.0,-42347.0,714.198,-351.01,-580.45,-58.099,-49.48
40509.0,9869.0,-42064.0,749.0,40509.0,9869.0,-42064.0,715.581,-360.402,-583.86,-55.921,-49.43
40246.0,9814.0,-41785.0,749.0,40246.0,9814.0,-41785.0,716.949,-368.561,-584.61,-53.394,-49.06
39986.0,9772.0,-41510.0,749.0,39986.0,9772.0,-41510.0,720.953,-376.205,-590.88,-50.288,-48.82
39725.0,9739.0,-41240.0,749.0,39725.0,9739.0,-41240.0,722.581,-380.159,-597.43,-47.469,-49.03
39466.0,9716.0,-40975.0,749.0,39466.0,9716.0,-40975.0,721.243,-383.196,-600.45,-44.926,-48.89
39205.0,9700.0,-40714.0,787.0,39205.0,9700.0,-40714.0,720.859,-379.294,-604.21,-42.841,-49.5
38941.0,9685.0,-40457.0,787.0,38941.0,9685.0,-40457.0,718.481,-370.702,-608.54,-41.608,-50.17
38672.0,9669.0,-40204.0,787.0,38672.0,9669.0,-40204.0,716.149,-361.994,-610.38,-40.995,-51.08
38398.0,9650.0,-39951.0,787.0,38398.0,9650.0,-39951.0,714.677,-350.09,-612.38,-41.027,-52.4
38116.0,9626.0,-39700.0,787.0,38116.0,9626.0,-39700.0,711.048,-340.157,-617.33,-41.553,-53.85
37824.0,9595.0,-39448.0,787.0,37824.0,9595.0,-39448.0,707.938,-330.472,-622.05,-42.422,-55.65
37521.0,9558.0,-39197.0,787.0,37521.0,9558.0,-39197.0,705.679,-322.128,-626.23,-43.327,-57.95
37206.0,9512.0,-38946.0,787.0,37206.0,9512.0,-38946.0,703.533,-315.943,-630.57,-44.676,-60.42
36878.0,9457.0,-38695.0,830.0,36878.0,9457.0,-38695.0,704.022,-310.422,-632.38,-45.998,-62.97
36540.0,9393.0,-38445.0,830.0,36540.0,9393.0,-38445.0,707.051,-307.977,-636.51,-47.495,-65.41
36193.0,9321.0,-38196.0,830.0,36193.0,9321.0,-38196.0,712.101,-307.882,-643.35,-48.809,-67.3
35839.0,9242.0,-37948.0,830.0,35839.0,9242.0,-37948.0,716.651,-308.959,-646.91,-49.773,-68.96
35481.0,9158.0,-37703.0,830.0,35481.0,9158.0,-37703.0,720.625,-308.914,-650.25,-50.184,-70.1
35119.0,9072.0,-37460.0,830.0,35119.0,9072.0,-37460.0,726.741,-309.888,-654.14,-50.235,-71.19
34756.0,8985.0,-37221.0,830.0,34756.0,8985.0,-37221.0,732.062,-312.272,-657.69,-49.821,-71.95
34392.0,8901.0,-36986.0,830.0,34392.0,8901.0,-36986.0,736.102,-315.325,-663.68,-48.779,-72.38
34029.0,8818.0,-36755.0,877.0,34029.0,8818.0,-36755.0,739.522,-319.32,-669.51,-47.763,-72.62
33669.0,8739.0,-36529.0,877.0,33669.0,8739.0,-36529.0,739.648,-321.814,-672.55,-46.376,-72.28
33311.0,8661.0,-36308.0,877.0,33311.0,8661.0,-36308.0,739.379,-323.3,-678.28,-45.502,-72.03
32957.0,8582.0,-36092.0,877.0,32957.0,8582.0,-36092.0,739.26,-322.13,-684.52,-44.98,-71.6
32607.0,8500.0,-35879.0,877.0,32607.0,8500.0,-35879.0,736.195,-320.55,-685.35,-44.923,-71.01
32259.0,8414.0,-35669.0,877.0,32259.0,8414.0,-35669.0,730.895,-319.733,-686.65,-45.203,-70.74
31915.0,8324.0,-35460.0,877.0,31915.0,8324.0,-35460.0,724.015,-316.963,-689.08,-45.595,-70.12
31572.0,8228.0,-35253.0,877.0,31572.0,8228.0,-35253.0,715.466,-310.536,-691.26,-46.353,-69.87
31228.0,8127.0,-35046.0,929.0,31228.0,8127.0,-35046.0,707.772,-305.852,-693.54,-47.065,-70.01
30883.0,8020.0,-34839.0,929.0,30883.0,8020.0,-34839.0,700.786,-305.355,-693.32,-47.929,-70.3
30532.0,7910.0,-34631.0,929.0,30532.0,7910.0,-34631.0,691.882,-305.406,-695.64,-48.586,-71.56
30172.0,7798.0,-34423.0,929.0,30172.0,7798.0,-34423.0,683.703,-308.048,-700.77,-48.743,-73.14
29801.0,7686.0,-34216.0,929.0,29801.0,7686.0,-34216.0,676.633,-308.706,-705.05,-48.739,-75.34
29418.0,7575.0,-34010.0,929.0,29418.0,7575.0,-34010.0,674.728,-308.678,-709.02,-48.119,-77.91
29023.0,7468.0,-33804.0,929.0,29023.0,7468.0,-33804.0,675.906,-311.339,-715.37,-47.148,-80.69
28615.0,7366.0,-33600.0,929.0,28615.0,7366.0,-33600.0,676.667,-312.853,-724.02,-45.82,-83.28
28195.0,7269.0,-33398.0,978.0,28195.0,7269.0,-33398.0,680.361,-313.046,-734.4,-44.355,-85.85
27766.0,7175.0,-33197.0,978.0,27766.0,7175.0,-33197.0,686.797,-310.064,-744.36,-43.271,-88.21
27330.0,7083.0,-32998.0,978.0,27330.0,7083.0,-32998.0,692.549,-303.748,-751.61,-42.499,-89.9
26886.0,6988.0,-32801.0,978.0,26886.0,6988.0,-32801.0,695.289,-299.776,-759.07,-42.385,-91.75
26438.0,6890.0,-32606.0,978.0,26438.0,6890.0,-32606.0,697.578,-293.505,-767.03,-42.514,-92.91
25986.0,6784.0,-32414.0,978.0,25986.0,6784.0,-32414.0,699.424,-282.137,-772.47,-43.068,-94.01
25529.0,6670.0,-32225.0,978.0,25529.0,6670.0,-32225.0,699.917,-269.994,-775.67,-44.029,-95.29
25069.0,6546.0,-32038.0,978.0,25069.0,6546.0,-32038.0,697.098,-259.719,-779.45,-45.354,-96.28
23161.0,5917.0,-31320.0,1032.0,23161.0,5917.0,-31320.0,673.11,-235.15,-784.33,-53.794,-103.06
22660.0,5720.0,-31155.0,1032.0,22660.0,5720.0,-31155.0,665.386,-228.65,-787.0,-56.126,-105.61
22146.0,5509.0,-30999.0,1032.0,22146.0,5509.0,-30999.0,658.445,-227.469,-791.7,-58.143,-108.59
21619.0,5285.0,-30851.0,1032.0,21619.0,5285.0,-30851.0,652.787,-227.898,-793.39,-59.72,-111.56
20527.0,4810.0,-30590.0,1190.0,20527.0,4810.0,-30590.0,641.324,-227.215,-799.27,-61.541,-117.25
19967.0,4563.0,-30476.0,1190.0,19967.0,4563.0,-30476.0,638.27,-229.188,-803.25,-61.868,-119.38
19400.0,4312.0,-30372.0,1190.0,19400.0,4312.0,-30372.0,634.656,-234.233,-806.63,-61.818,-121.32
18827.0,4062.0,-30278.0,1190.0,18827.0,4062.0,-30278.0,633.547,-242.565,-810.04,-61.232,-123.0
18246.0,3817.0,-30193.0,1190.0,18246.0,3817.0,-30193.0,629.381,-248.973,-813.44,-59.844,-124.73
17657.0,3581.0,-30116.0,1190.0,17657.0,3581.0,-30116.0,623.957,-256.357,-816.83,-57.709,-126.89
17058.0,3361.0,-30044.0,1190.0,17058.0,3361.0,-30044.0,620.784,-265.924,-822.5,-54.648,-129.2
16446.0,3158.0,-29978.0,1190.0,16446.0,3158.0,-29978.0,616.603,-274.556,-832.97,-50.872,-131.94
15820.0,2974.0,-29914.0,1189.0,15820.0,2974.0,-29914.0,613.861,-280.219,-842.87,-47.16,-134.91
15182.0,2808.0,-29852.0,1189.0,15182.0,2808.0,-29852.0,613.516,-281.036,-852.03,-43.505,-137.87
14530.0,2655.0,-29792.0,1189.0,14530.0,2655.0,-29792.0,612.897,-277.515,-861.76,-40.649,-140.81
13867.0,2508.0,-29732.0,1189.0,13867.0,2508.0,-29732.0,610.174,-270.042,-869.16,-39.06,-143.36
13193.0,2363.0,-29672.0,1189.0,13193.0,2363.0,-29672.0,605.988,-258.86,-876.8,-38.377,-145.71
12510.0,2212.0,-29611.0,1189.0,12510.0,2212.0,-29611.0,602.938,-242.17,-882.67,-38.911,-147.84
11816.0,2049.0,-29550.0,1189.0,11816.0,2049.0,-29550.0,598.111,-220.51,-886.11,-40.588,-150.11
11114.0,1874.0,-29489.0,1189.0,11114.0,1874.0,-29489.0,590.721,-197.295,-887.91,-42.196,-152.12
10402.0,1684.0,-29427.0,1189.0,10402.0,1684.0,-29427.0,581.083,-174.701,-882.86,-44.51,-154.17
9681.0,1482.0,-29365.0,1189.0,9681.0,1482.0,-29365.0,568.934,-157.137,-878.29,-46.359,-156.23
8953.0,1272.0,-29304.0,1189.0,8953.0,1272.0,-29304.0,556.804,-143.942,-877.42,-47.427,-157.59
8215.0,1054.0,-29247.0,1189.0,8215.0,1054.0,-29247.0,544.46,-130.943,-873.43,-48.424,-159.51
7472.0,835.0,-29193.0,1189.0,7472.0,835.0,-29193.0,531.663,-120.252,-871.46,-48.046,-160.79
6722.0,621.0,-29143.0,1189.0,6722.0,621.0,-29143.0,516.429,-113.639,-872.48,-47.019,-162.13
5961.0,413.0,-29098.0,1189.0,5961.0,413.0,-29098.0,496.344,-109.376,-872.65,-45.234,-163.98
5194.0,219.0,-29059.0,1189.0,5194.0,219.0,-29059.0,477.06,-109.232,-877.26,-42.475,-165.22
4413.0,38.0,-29025.0,1187.0,4413.0,38.0,-29025.0,458.852,-110.72,-886.56,-39.795,-167.57
3620.0,-131.0,-28996.0,1187.0,3620.0,-131.0,-28996.0,440.338,-108.441,-892.39,-37.335,-170.01
2811.0,-291.0,-28973.0,1187.0,2811.0,-291.0,-28973.0,422.21,-103.761,-897.7,-35.22,-172.81
1984.0,-446.0,-28956.0,1187.0,1984.0,-446.0,-28956.0,402.194,-98.232,-906.34,-34.17,-176.43
1139.0,-601.0,-28943.0,1187.0,1139.0,-601.0,-28943.0,382.782,-89.924,-914.73,-33.659,-179.56
275.0,-756.0,-28935.0,1187.0,275.0,-756.0,-28935.0,364.505,-79.91,-922.69,-33.638,-183.32
-605.0,-916.0,-28930.0,1187.0,-605.0,-916.0,-28930.0,351.352,-69.569,-930.76,-34.178,-186.78
-1502.0,-1081.0,-28930.0,1187.0,-1502.0,-1081.0,-28930.0,341.089,-56.93,-938.79,-34.832,-190.09
-2415.0,-1251.0,-28933.0,1188.0,-2415.0,-1251.0,-28933.0,332.355,-44.612,-946.78,-35.661,-193.39
-3339.0,-1430.0,-28940.0,1188.0,-3339.0,-1430.0,-28940.0,328.231,-32.847,-952.18,-37.038,-195.92
-4271.0,-1614.0,-28951.0,1188.0,-4271.0,-1614.0,-28951.0,323.327,-20.465,-957.6,-38.075,-197.94
-5208.0,-1804.0,-28966.0,1188.0,-5208.0,-1804.0,-28966.0,319.392,-11.833,-963.38,-38.883,-199.17
-6145.0,-1993.0,-28984.0,1188.0,-6145.0,-1993.0,-28984.0,317.218,-5.883,-963.98,-38.89,-199.59
-7079.0,-2176.0,-29006.0,1188.0,-7079.0,-2176.0,-29006.0,313.409,-1.231,-967.09,-37.921,-199.28
-8009.0,-2351.0,-29031.0,1188.0,-8009.0,-2351.0,-29031.0,305.941,-2.469,-973.51,-36.509,-198.55
-8933.0,-2516.0,-29061.0,1188.0,-8933.0,-2516.0,-29061.0,294.909,-3.899,-974.17,-34.784,-197.56
-9853.0,-2670.0,-29093.0,1188.0,-9853.0,-2670.0,-29093.0,281.01,-2.23,-974.93,-32.882,-196.83
-10771.0,-2813.0,-29128.0,1188.0,-10771.0,-2813.0,-29128.0,262.018,-1.379,-979.45,-30.81,-196.1
-11688.0,-2945.0,-29164.0,1188.0,-11688.0,-2945.0,-29164.0,240.641,1.0,-983.68,-28.952,-195.71
-12604.0,-3068.0,-29201.0,1188.0,-12604.0,-3068.0,-29201.0,220.265,4.953,-987.67,-27.091,-195.33
-13519.0,-3187.0,-29240.0,1188.0,-13519.0,-3187.0,-29240.0,200.66,11.423,-994.42,-26.466,-195.03
-14436.0,-3308.0,-29279.0,1188.0,-14436.0,-3308.0,-29279.0,181.937,24.821,-1001.4,-26.582,-195.29
-15354.0,-3437.0,-29318.0,1188.0,-15354.0,-3437.0,-29318.0,166.644,41.622,-1003.2,-28.019,-195.45
-16272.0,-3580.0,-29356.0,1188.0,-16272.0,-3580.0,-29356.0,157.298,58.062,-1005.25,-30.263,-195.83
-17192.0,-3736.0,-29393.0,1190.0,-17192.0,-3736.0,-29393.0,148.495,77.002,-1008.44,-32.467,-196.23
-18112.0,-3907.0,-29428.0,1190.0,-18112.0,-3907.0,-29428.0,134.97,96.113,-1011.26,-34.919,-196.35
-19034.0,-4088.0,-29463.0,1190.0,-19034.0,-4088.0,-29463.0,122.522,112.416,-1014.09,-36.772,-196.68
-19956.0,-4280.0,-29498.0,1190.0,-19956.0,-4280.0,-29498.0,113.549,127.156,-1014.33,-38.574,-197.14
-20879.0,-4479.0,-29533.0,1190.0,-20879.0,-4479.0,-29533.0,101.514,136.597,-1012.14,-39.986,-197.2
-21802.0,-4681.0,-29570.0,1190.0,-21802.0,-4681.0,-29570.0,88.82,138.986,-1012.72,-40.901,-197.05
-22720.0,-4882.0,-29611.0,1190.0,-22720.0,-4882.0,-29611.0,78.988,138.347,-1020.5,-41.166,-196.41
-23631.0,-5074.0,-29657.0,1190.0,-23631.0,-5074.0,-29657.0,68.336,133.214,-1029.69,-40.371,-195.02
-24533.0,-5255.0,-29708.0,1185.0,-24533.0,-5255.0,-29708.0,56.497,125.937,-1034.99,-38.868,-193.36
-25426.0,-5419.0,-29766.0,1185.0,-25426.0,-5419.0,-29766.0,41.764,117.309,-1038.05,-36.574,-191.32
-26306.0,-5565.0,-29829.0,1185.0,-26306.0,-5565.0,-29829.0,26.41,106.344,-1041.73,-34.105,-188.78
-27175.0,-5693.0,-29897.0,1185.0,-27175.0,-5693.0,-29897.0,13.431,95.398,-1048.1,-31.572,-186.52
-28031.0,-5803.0,-29970.0,1185.0,-28031.0,-5803.0,-29970.0,-2.8,86.428,-1054.4,-28.989,-184.04
-28875.0,-5899.0,-30046.0,1185.0,-28875.0,-5899.0,-30046.0,-19.967,83.237,-1055.67,-26.583,-181.5
-29711.0,-5980.0,-30121.0,1185.0,-29711.0,-5980.0,-30121.0,-36.6,82.37,-1055.07,-23.973,-179.69
-30536.0,-6050.0,-30195.0,1185.0,-30536.0,-6050.0,-30195.0,-55.806,82.373,-1053.35,-21.816,-177.54
-31352.0,-6113.0,-30263.0,1120.0,-31352.0,-6113.0,-30263.0,-72.138,86.112,-1049.52,-20.04,-175.76
-32160.0,-6176.0,-30325.0,1120.0,-32160.0,-6176.0,-30325.0,-82.706,90.473,-1043.8,-19.344,-174.2
-32955.0,-6246.0,-30380.0,1120.0,-32955.0,-6246.0,-30380.0,-88.478,97.157,-1040.87,-19.912,-172.01
-33738.0,-6326.0,-30428.0,1120.0,-33738.0,-6326.0,-30428.0,-91.911,106.879,-1038.33,-21.01,-170.14
-34508.0,-6422.0,-30467.0,1120.0,-34508.0,-6422.0,-30467.0,-95.605,116.724,-1030.29,-23.131,-167.71
-35261.0,-6531.0,-30500.0,1120.0,-35261.0,-6531.0,-30500.0,-98.896,124.416,-1024.96,-24.938,-164.55
-35995.0,-6651.0,-30528.0,1120.0,-35995.0,-6651.0,-30528.0,-101.888,130.57,-1020.52,-26.554,-161.11
-36705.0,-6780.0,-30553.0,1120.0,-36705.0,-6780.0,-30553.0,-105.177,133.502,-1015.01,-27.969,-156.74
-37392.0,-6910.0,-30578.0,1105.0,-37392.0,-6910.0,-30578.0,-108.833,130.987,-1014.51,-28.52,-152.22
-38056.0,-7041.0,-30606.0,1105.0,-38056.0,-7041.0,-30606.0,-115.673,129.119,-1013.82,-28.951,-147.66
-38695.0,-7166.0,-30639.0,1105.0,-38695.0,-7166.0,-30639.0,-128.175,126.513,-1012.21,-28.824,-142.65
-39310.0,-7282.0,-30679.0,1105.0,-39310.0,-7282.0,-30679.0,-143.246,120.032,-1013.4,-28.048,-137.63
-39903.0,-7384.0,-30728.0,1105.0,-39903.0,-7384.0,-30728.0,-162.908,108.939,-1014.42,-26.782,-132.92
-40474.0,-7468.0,-30785.0,1105.0,-40474.0,-7468.0,-30785.0,-185.099,95.886,-1015.01,-24.735,-128.14
-41029.0,-7533.0,-30847.0,1105.0,-41029.0,-7533.0,-30847.0,-206.357,85.897,-1013.49,-21.967,-124.43
-41570.0,-7579.0,-30915.0,1105.0,-41570.0,-7579.0,-30915.0,-229.583,75.519,-1009.65,-19.188,-121.26
-42098.0,-7606.0,-30985.0,1104.0,-42098.0,-7606.0,-30985.0,-254.492,63.593,-1006.49,-16.14,-118.34
-42620.0,-7619.0,-31055.0,1104.0,-42620.0,-7619.0,-31055.0,-280.187,53.1,-1001.28,-13.573,-116.66
-43130.0,-7619.0,-31125.0,1104.0,-43130.0,-7619.0,-31125.0,-297.098,42.958,-998.22,-11.39,-114.22
-43632.0,-7613.0,-31192.0,1104.0,-43632.0,-7613.0,-31192.0,-302.875,32.25,-997.86,-9.936,-112.55
-44121.0,-7601.0,-31258.0,1104.0,-44121.0,-7601.0,-31258.0,-307.133,25.598,-996.67,-8.989,-110.46
-44595.0,-7588.0,-31322.0,1104.0,-44595.0,-7588.0,-31322.0,-309.52,27.116,-995.34,-8.637,-107.58
-45053.0,-7577.0,-31385.0,1104.0,-45053.0,-7577.0,-31385.0,-306.586,30.617,-994.02,-8.614,-104.59
-45484.0,-7566.0,-31451.0,1104.0,-45484.0,-7566.0,-31451.0,-299.522,35.338,-994.93,-8.934,-99.83
-45886.0,-7557.0,-31519.0,1108.0,-45886.0,-7557.0,-31519.0,-289.246,42.737,-998.14,-9.868,-94.49
-46257.0,-7551.0,-31594.0,1108.0,-46257.0,-7551.0,-31594.0,-281.01,47.978,-1000.65,-11.086,-88.71
-46595.0,-7547.0,-31678.0,1108.0,-46595.0,-7547.0,-31678.0,-277.661,54.27,-995.8,-12.781,-82.14
-46899.0,-7546.0,-31770.0,1108.0,-46899.0,-7546.0,-31770.0,-282.955,60.54,-986.62,-14.388,-75.19
-47168.0,-7544.0,-31873.0,1108.0,-47168.0,-7544.0,-31873.0,-291.745,61.319,-979.11,-15.929,-67.83
-47399.0,-7538.0,-31987.0,1108.0,-47399.0,-7538.0,-31987.0,-302.877,55.616,-971.93,-16.901,-59.73
-47597.0,-7526.0,-32113.0,1108.0,-47597.0,-7526.0,-32113.0,-324.479,49.234,-964.69,-17.606,-52.55
-47769.0,-7508.0,-32247.0,1108.0,-47769.0,-7508.0,-32247.0,-345.762,44.779,-957.61,-17.642,-46.7
-47919.0,-7483.0,-32387.0,1131.0,-47919.0,-7483.0,-32387.0,-362.614,38.916,-948.05,-17.407,-41.66
-48054.0,-7455.0,-32531.0,1131.0,-48054.0,-7455.0,-32531.0,-379.573,34.097,-938.61,-17.138,-38.09
-48173.0,-7425.0,-32675.0,1131.0,-48173.0,-7425.0,-32675.0,-392.726,28.368,-936.76,-17.258,-34.88
-48276.0,-7396.0,-32820.0,1131.0,-48276.0,-7396.0,-32820.0,-403.786,16.419,-936.73,-17.902,-31.33
-48366.0,-7372.0,-32964.0,1131.0,-48366.0,-7372.0,-32964.0,-417.829,6.136,-935.15,-18.907,-28.7
-48443.0,-7357.0,-33107.0,1131.0,-48443.0,-7357.0,-33107.0,-431.656,2.231,-933.76,-20.54,-25.72
-48508.0,-7351.0,-33247.0,1131.0,-48508.0,-7351.0,-33247.0,-440.498,-0.04,-927.54,-21.971,-23.24
-48565.0,-7355.0,-33385.0,1131.0,-48565.0,-7355.0,-33385.0,-443.421,-1.72,-923.67,-23.722,-21.36
-48608.0,-7362.0,-33524.0,1150.0,-48608.0,-7362.0,-33524.0,-446.719,-7.119,-925.46,-24.802,-18.81
-48642.0,-7369.0,-33667.0,1150.0,-48642.0,-7369.0,-33667.0,-456.174,-16.095,-923.74,-25.3,-16.63
-48663.0,-7370.0,-33816.0,1150.0,-48663.0,-7370.0,-33816.0,-466.083,-22.735,-919.02,-25.312,-13.59
-48670.0,-7361.0,-33973.0,1150.0,-48670.0,-7361.0,-33973.0,-473.918,-24.898,-910.43,-24.52,-10.26
-48662.0,-7341.0,-34138.0,1150.0,-48662.0,-7341.0,-34138.0,-483.64,-22.858,-897.47,-23.547,-6.89
-48639.0,-7308.0,-34313.0,1150.0,-48639.0,-7308.0,-34313.0,-492.555,-18.87,-887.92,-22.191,-3.06
-48602.0,-7260.0,-34500.0,1150.0,-48602.0,-7260.0,-34500.0,-502.559,-14.469,-876.51,-20.788,0.31
-48552.0,-7199.0,-34697.0,1150.0,-48552.0,-7199.0,-34697.0,-516.586,-11.184,-861.92,-19.589,3.52
-48493.0,-7128.0,-34902.0,1170.0,-48493.0,-7128.0,-34902.0,-530.954,-4.286,-848.3,-18.682,6.28
-48428.0,-7051.0,-35114.0,1170.0,-48428.0,-7051.0,-35114.0,-545.138,8.513,-834.99,-18.109,8.29
-48357.0,-6973.0,-35330.0,1170.0,-48357.0,-6973.0,-35330.0,-557.024,18.393,-821.47,-18.131,9.95
-48285.0,-6899.0,-35545.0,1170.0,-48285.0,-6899.0,-35545.0,-568.363,27.275,-807.95,-18.684,10.84
-48213.0,-6838.0,-35759.0,1170.0,-48213.0,-6838.0,-35759.0,-576.737,38.357,-801.61,-20.459,11.12
-48141.0,-6793.0,-35969.0,1170.0,-48141.0,-6793.0,-35969.0,-581.345,45.441,-797.44,-23.132,11.3
-48072.0,-6766.0,-36177.0,1170.0,-48072.0,-6766.0,-36177.0,-587.796,48.389,-793.93,-26.333,10.79
-48007.0,-6759.0,-36383.0,1170.0,-48007.0,-6759.0,-36383.0,-595.526,50.312,-797.76,-29.934,10.21
-47946.0,-6768.0,-36589.0,1186.0,-47946.0,-6768.0,-36589.0,-599.24,48.591,-803.21,-33.066,9.37
-47891.0,-6790.0,-36797.0,1186.0,-47891.0,-6790.0,-36797.0,-597.576,43.197,-807.07,-36.117,8.14
-47840.0,-6822.0,-37008.0,1186.0,-47840.0,-6822.0,-37008.0,-598.93,35.267,-811.01,-38.782,7.39
-47793.0,-6860.0,-37226.0,1186.0,-47793.0,-6860.0,-37226.0,-601.285,25.192,-814.97,-41.146,6.59
-47750.0,-6900.0,-37453.0,1186.0,-47750.0,-6900.0,-37453.0,-600.854,18.443,-816.53,-43.148,6.2
-47707.0,-6941.0,-37691.0,1186.0,-47707.0,-6941.0,-37691.0,-601.597,13.136,-815.7,-44.829,6.28
-47666.0,-6978.0,-37939.0,1186.0,-47666.0,-6978.0,-37939.0,-601.339,8.654,-813.01,-45.855,6.09
-47625.0,-7010.0,-38200.0,1186.0,-47625.0,-7010.0,-38200.0,-599.609,6.13,-808.25,-46.514,6.6
-47582.0,-7034.0,-38472.0,1206.0,-47582.0,-7034.0,-38472.0,-599.436,5.06,-803.9,-46.834,7.23
-47537.0,-7049.0,-38756.0,1206.0,-47537.0,-7049.0,-38756.0,-602.84,5.44,-797.55,-46.563,8.07
-47488.0,-7055.0,-39051.0,1206.0,-47488.0,-7055.0,-39051.0,-609.225,4.554,-788.7,-46.432,9.5
-47435.0,-7053.0,-39355.0,1206.0,-47435.0,-7053.0,-39355.0,-615.429,6.55,-782.95,-46.044,10.56
-47379.0,-7046.0,-39668.0,1206.0,-47379.0,-7046.0,-39668.0,-621.533,9.197,-779.84,-46.279,11.83
-47319.0,-7040.0,-39986.0,1206.0,-47319.0,-7040.0,-39986.0,-627.996,8.641,-775.96,-47.174,12.86
-47257.0,-7037.0,-40310.0,1206.0,-47257.0,-7037.0,-40310.0,-634.35,5.673,-771.79,-48.659,13.52
-47194.0,-7039.0,-40639.0,1206.0,-47194.0,-7039.0,-40639.0,-640.314,-0.098,-772.53,-50.512,14.08
-47129.0,-7049.0,-40970.0,1084.0,-47129.0,-7049.0,-40970.0,-645.744,-4.272,-775.61,-52.506,14.43
-47065.0,-7064.0,-41305.0,1084.0,-47065.0,-7064.0,-41305.0,-650.629,-7.026,-777.6,-53.986,14.58
-47001.0,-7084.0,-41642.0,1084.0,-47001.0,-7084.0,-41642.0,-652.392,-9.592,-781.87,-55.461,14.58
-46935.0,-7108.0,-41982.0,1084.0,-46935.0,-7108.0,-41982.0,-651.09,-13.592,-788.53,-56.6,14.92
-46867.0,-7133.0,-42327.0,1084.0,-46867.0,-7133.0,-42327.0,-649.841,-20.914,-794.5,-57.681,15.28
-46793.0,-7160.0,-42678.0,1084.0,-46793.0,-7160.0,-42678.0,-648.584,-27.963,-797.76,-58.958,16.42
-46713.0,-7186.0,-43034.0,1084.0,-46713.0,-7186.0,-43034.0,-646.983,-31.79,-801.26,-59.772,17.91
-46626.0,-7212.0,-43395.0,1084.0,-46626.0,-7212.0,-43395.0,-648.068,-30.281,-800.63,-60.373,19.25
-46532.0,-7236.0,-43759.0,1148.0,-46532.0,-7236.0,-43759.0,-652.01,-28.328,-797.49,-60.139,20.96
-46434.0,-7256.0,-44124.0,1148.0,-46434.0,-7256.0,-44124.0,-656.064,-31.101,-795.41,-59.512,22.06
-46333.0,-7269.0,-44490.0,1148.0,-46333.0,-7269.0,-44490.0,-663.016,-34.799,-791.01,-58.275,23.14
-46228.0,-7277.0,-44854.0,1148.0,-46228.0,-7277.0,-44854.0,-670.793,-36.721,-784.22,-57.052,24.16
-46120.0,-7283.0,-45214.0,1148.0,-46120.0,-7283.0,-45214.0,-675.958,-37.991,-778.0,-55.746,24.95
-46010.0,-7287.0,-45567.0,1148.0,-46010.0,-7287.0,-45567.0,-683.7,-38.978,-774.54,-54.532,25.66
-45896.0,-7293.0,-45912.0,1148.0,-45896.0,-7293.0,-45912.0,-691.539,-39.639,-770.93,-53.556,26.61
-45778.0,-7303.0,-46246.0,1148.0,-45778.0,-7303.0,-46246.0,-693.316,-40.366,-769.09,-52.779,27.49
-45653.0,-7317.0,-46570.0,1333.0,-45653.0,-7317.0,-46570.0,-692.441,-43.817,-769.79,-52.193,28.7
-45519.0,-7337.0,-46885.0,1333.0,-45519.0,-7337.0,-46885.0,-694.396,-47.801,-772.31,-51.865,30.4
-45376.0,-7365.0,-47189.0,1333.0,-45376.0,-7365.0,-47189.0,-693.717,-47.324,-774.56,-51.836,31.93
-45221.0,-7399.0,-47484.0,1333.0,-45221.0,-7399.0,-47484.0,-690.003,-45.713,-776.41,-51.796,34.21
-45054.0,-7441.0,-47771.0,1333.0,-45054.0,-7441.0,-47771.0,-687.259,-46.097,-780.84,-52.093,36.5
-44873.0,-7487.0,-48052.0,1333.0,-44873.0,-7487.0,-48052.0,-685.31,-47.231,-782.77,-52.146,39.07
-44678.0,-7538.0,-48330.0,1333.0,-44678.0,-7538.0,-48330.0,-683.847,-46.364,-781.85,-52.282,42.14
-44468.0,-7591.0,-48604.0,1333.0,-44468.0,-7591.0,-48604.0,-682.959,-43.569,-781.78,-52.063,45.02
-44244.0,-7643.0,-48876.0,1373.0,-44244.0,-7643.0,-48876.0,-684.955,-41.414,-781.94,-51.504,48.03
-44007.0,-7692.0,-49147.0,1373.0,-44007.0,-7692.0,-49147.0,-689.792,-39.239,-779.59,-50.589,50.89
-43759.0,-7738.0,-49416.0,1373.0,-43759.0,-7738.0,-49416.0,-694.268,-36.358,-774.88,-49.355,53.37
-43501.0,-7778.0,-49686.0,1373.0,-43501.0,-7778.0,-49686.0,-695.982,-37.721,-772.99,-48.17,55.82
-43234.0,-7811.0,-49956.0,1373.0,-43234.0,-7811.0,-49956.0,-699.989,-40.558,-771.35,-46.896,57.83
-42959.0,-7842.0,-50224.0,1373.0,-42959.0,-7842.0,-50224.0,-706.397,-39.086,-766.71,-45.903,59.69
-42678.0,-7870.0,-50492.0,1373.0,-42678.0,-7870.0,-50492.0,-711.319,-39.344,-762.34,-44.949,61.37
-42392.0,-7897.0,-50757.0,1373.0,-42392.0,-7897.0,-50757.0,-715.187,-42.288,-760.77,-44.445,62.76
-42101.0,-7925.0,-51019.0,1404.0,-42101.0,-7925.0,-51019.0,-718.407,-42.099,-761.42,-44.064,64.0
-41806.0,-7957.0,-51277.0,1404.0,-41806.0,-7957.0,-51277.0,-718.657,-42.004,-761.49,-44.111,64.83
-41507.0,-7994.0,-51531.0,1404.0,-41507.0,-7994.0,-51531.0,-718.48,-45.523,-763.57,-44.362,65.58
-41207.0,-8035.0,-51779.0,1404.0,-41207.0,-8035.0,-51779.0,-720.848,-49.55,-768.27,-44.516,65.96
-40904.0,-8084.0,-52021.0,1404.0,-40904.0,-8084.0,-52021.0,-720.405,-51.615,-774.73,-45.136,66.38
-40601.0,-8137.0,-52258.0,1404.0,-40601.0,-8137.0,-52258.0,-717.188,-54.636,-780.78,-45.26,66.51
-40297.0,-8195.0,-52491.0,1404.0,-40297.0,-8195.0,-52491.0,-714.957,-58.571,-784.08,-45.549,66.69
-39991.0,-8256.0,-52721.0,1404.0,-39991.0,-8256.0,-52721.0,-713.115,-60.238,-787.68,-45.822,66.98
-39684.0,-8317.0,-52949.0,1230.0,-39684.0,-8317.0,-52949.0,-711.311,-61.996,-791.77,-45.42,67.38
-39373.0,-8380.0,-53175.0,1230.0,-39373.0,-8380.0,-53175.0,-709.832,-61.583,-793.27,-45.334,68.15
-39060.0,-8440.0,-53401.0,1230.0,-39060.0,-8440.0,-53401.0,-708.646,-60.539,-794.9,-44.628,68.9
-38743.0,-8495.0,-53628.0,1230.0,-38743.0,-8495.0,-53628.0,-710.274,-59.392,-794.68,-43.627,69.74
-38426.0,-8547.0,-53855.0,1230.0,-38426.0,-8547.0,-53855.0,-712.323,-57.24,-791.94,-42.746,70.36
-38107.0,-8590.0,-54085.0,1230.0,-38107.0,-8590.0,-54085.0,-714.268,-56.917,-789.78,-41.215,71.04
-37788.0,-8627.0,-54316.0,1230.0,-37788.0,-8627.0,-54316.0,-719.251,-55.859,-785.57,-39.791,71.49
-37469.0,-8656.0,-54548.0,1230.0,-37469.0,-8656.0,-54548.0,-724.272,-53.934,-783.66,-38.222,71.95
-37150.0,-8678.0,-54783.0,1217.0,-37150.0,-8678.0,-54783.0,-726.45,-52.029,-782.23,-36.787,72.28
-36832.0,-8693.0,-55019.0,1217.0,-36832.0,-8693.0,-55019.0,-728.836,-52.241,-779.97,-35.582,72.34
-36515.0,-8705.0,-55257.0,1217.0,-36515.0,-8705.0,-55257.0,-728.978,-52.63,-780.41,-34.84,72.52
-36198.0,-8716.0,-55497.0,1217.0,-36198.0,-8716.0,-55497.0,-723.912,-50.41,-780.65,-34.567,72.64
-35881.0,-8726.0,-55739.0,1217.0,-35881.0,-8726.0,-55739.0,-719.112,-48.981,-782.81,-34.454,72.88
-35561.0,-8738.0,-55982.0,1217.0,-35561.0,-8738.0,-55982.0,-714.761,-46.384,-787.59,-34.934,73.26
-35241.0,-8751.0,-56230.0,1217.0,-35241.0,-8751.0,-56230.0,-709.863,-44.347,-791.69,-35.231,73.66
-34917.0,-8765.0,-56480.0,1217.0,-34917.0,-8765.0,-56480.0,-702.685,-46.033,-795.45,-35.612,74.22
-34589.0,-8778.0,-56737.0,1218.0,-34589.0,-8778.0,-56737.0,-693.166,-48.238,-801.67,-36.104,75.16
-34256.0,-8790.0,-57000.0,1218.0,-34256.0,-8790.0,-57000.0,-684.508,-48.169,-807.88,-36.231,76.34
-33915.0,-8800.0,-57270.0,1218.0,-33915.0,-8800.0,-57270.0,-678.835,-46.197,-813.64,-36.442,77.8
-33567.0,-8804.0,-57550.0,1218.0,-33567.0,-8804.0,-57550.0,-675.714,-47.015,-819.57,-36.181,79.55
-33212.0,-8801.0,-57837.0,1218.0,-33212.0,-8801.0,-57837.0,-672.503,-50.111,-825.37,-35.437,81.33
-32847.0,-8790.0,-58132.0,1218.0,-32847.0,-8790.0,-58132.0,-669.38,-51.849,-831.17,-34.409,83.55
-32470.0,-8771.0,-58434.0,1218.0,-32470.0,-8771.0,-58434.0,-666.88,-52.516,-834.56,-33.341,86.02
-32082.0,-8747.0,-58742.0,1218.0,-32082.0,-8747.0,-58742.0,-666.964,-52.5,-838.01,-32.569,88.66
-31681.0,-8721.0,-59054.0,1207.0,-31681.0,-8721.0,-59054.0,-669.514,-49.312,-842.09,-32.302,91.52
-31268.0,-8697.0,-59370.0,1207.0,-31268.0,-8697.0,-59370.0,-671.55,-45.56,-845.88,-32.476,94.34
-30842.0,-8676.0,-59686.0,1207.0,-30842.0,-8676.0,-59686.0,-673.225,-44.471,-852.07,-32.914,97.0
-30404.0,-8661.0,-60002.0,1207.0,-30404.0,-8661.0,-60002.0,-677.347,-40.885,-858.24,-33.501,99.84
-29955.0,-8654.0,-60315.0,1207.0,-29955.0,-8654.0,-60315.0,-681.288,-37.32,-861.5,-34.328,102.24
-29495.0,-8656.0,-60624.0,1207.0,-29495.0,-8656.0,-60624.0,-684.433,-35.33,-864.97,-35.281,104.64
-29024.0,-8667.0,-60930.0,1207.0,-29024.0,-8667.0,-60930.0,-689.7,-34.07,-871.34,-36.285,106.96
-28058.0,-8717.0,-61526.0,1198.0,-28058.0,-8717.0,-61526.0,-691.158,-33.983,-882.83,-38.206,110.82
-27562.0,-8753.0,-61818.0,1198.0,-27562.0,-8753.0,-61818.0,-690.594,-36.9,-888.45,-38.918,112.51
-27057.0,-8794.0,-62106.0,1198.0,-27057.0,-8794.0,-62106.0,-690.009,-39.584,-889.25,-39.345,114.34
-26544.0,-8837.0,-62392.0,1198.0,-26544.0,-8837.0,-62392.0,-691.353,-43.712,-890.16,-39.092,116.5
-26021.0,-8879.0,-62676.0,1198.0,-26021.0,-8879.0,-62676.0,-692.438,-49.852,-892.09,-38.707,118.71
-25488.0,-8919.0,-62960.0,1198.0,-25488.0,-8919.0,-62960.0,-690.681,-54.496,-891.14,-37.62,121.04
-24943.0,-8951.0,-63242.0,1198.0,-24943.0,-8951.0,-63242.0,-687.079,-57.965,-887.98,-35.783,123.64
-24388.0,-8976.0,-63524.0,1198.0,-24388.0,-8976.0,-63524.0,-686.738,-60.616,-883.02,-33.981,126.17
-23821.0,-8991.0,-63806.0,1195.0,-23821.0,-8991.0,-63806.0,-689.473,-64.748,-878.47,-31.596,128.98
-23240.0,-8995.0,-64089.0,1195.0,-23240.0,-8995.0,-64089.0,-689.546,-70.518,-874.21,-29.064,132.34
-22645.0,-8989.0,-64371.0,1195.0,-22645.0,-8989.0,-64371.0,-689.831,-75.141,-869.73,-26.747,135.48
-22035.0,-8974.0,-64653.0,1195.0,-22035.0,-8974.0,-64653.0,-691.187,-76.828,-865.41,-24.168,138.83
-21410.0,-8951.0,-64933.0,1195.0,-21410.0,-8951.0,-64933.0,-690.086,-76.463,-863.43,-22.035,142.11
-20772.0,-8922.0,-65209.0,1195.0,-20772.0,-8922.0,-65209.0,-689.231,-76.963,-863.77,-20.127,145.09
-20118.0,-8887.0,-65483.0,1195.0,-20118.0,-8887.0,-65483.0,-686.479,-78.371,-865.84,-18.162,148.35
-19448.0,-8848.0,-65752.0,1195.0,-19448.0,-8848.0,-65752.0,-678.602,-80.516,-872.19,-16.403,151.62
-18762.0,-8804.0,-66017.0,1197.0,-18762.0,-8804.0,-66017.0,-671.172,-81.189,-878.1,-14.655,154.72
-18057.0,-8754.0,-66276.0,1197.0,-18057.0,-8754.0,-66276.0,-661.938,-77.949,-880.75,-12.69,158.27
-17334.0,-8701.0,-66532.0,1197.0,-17334.0,-8701.0,-66532.0,-651.856,-73.93,-888.64,-10.859,161.95
-16589.0,-8641.0,-66784.0,1197.0,-16589.0,-8641.0,-66784.0,-642.05,-71.391,-899.19,-8.599,166.23
-15818.0,-8572.0,-67035.0,1197.0,-15818.0,-8572.0,-67035.0,-629.493,-71.563,-908.3,-6.23,171.13
-15023.0,-8493.0,-67285.0,1197.0,-15023.0,-8493.0,-67285.0,-619.495,-69.17,-917.44,-3.596,176.14
-14202.0,-8406.0,-67534.0,1197.0,-14202.0,-8406.0,-67534.0,-612.607,-61.266,-924.41,-0.894,181.33
-13358.0,-8311.0,-67780.0,1197.0,-13358.0,-8311.0,-67780.0,-607.737,-53.764,-931.4,1.853,186.17
-12491.0,-8207.0,-68024.0,1193.0,-12491.0,-8207.0,-68024.0,-605.576,-46.408,-936.49,4.5,190.88
-11605.0,-8096.0,-68263.0,1193.0,-11605.0,-8096.0,-68263.0,-603.608,-42.661,-936.43,7.059,195.02
-10702.0,-7977.0,-68498.0,1193.0,-10702.0,-7977.0,-68498.0,-603.943,-43.217,-936.98,9.769,198.87
-9785.0,-7850.0,-68727.0,1193.0,-9785.0,-7850.0,-68727.0,-606.55,-42.474,-940.7,12.234,202.06
-8857.0,-7713.0,-68947.0,1193.0,-8857.0,-7713.0,-68947.0,-610.412,-41.16,-943.97,15.21,204.54
-7923.0,-7568.0,-69158.0,1193.0,-7923.0,-7568.0,-69158.0,-615.57,-44.996,-946.67,17.785,206.21
-6985.0,-7413.0,-69360.0,1193.0,-6985.0,-7413.0,-69360.0,-619.262,-51.286,-949.5,20.565,207.28
-6047.0,-7247.0,-69550.0,1193.0,-6047.0,-7247.0,-69550.0,-619.01,-56.915,-954.67,23.467,207.63
-5109.0,-7071.0,-69728.0,1201.0,-5109.0,-7071.0,-69728.0,-617.776,-65.108,-962.2,26.298,207.65
-4170.0,-6880.0,-69896.0,1201.0,-4170.0,-6880.0,-69896.0,-615.917,-73.622,-971.61,29.63,208.09
-3231.0,-6674.0,-70052.0,1201.0,-3231.0,-6674.0,-70052.0,-608.245,-81.773,-983.12,33.246,208.14
-2286.0,-6450.0,-70198.0,1201.0,-2286.0,-6450.0,-70198.0,-597.992,-87.679,-991.98,37.326,209.06
-1338.0,-6203.0,-70334.0,1201.0,-1338.0,-6203.0,-70334.0,-588.957,-90.933,-998.36,42.272,209.85
-385.0,-5933.0,-70459.0,1201.0,-385.0,-5933.0,-70459.0,-578.195,-92.124,-1003.27,47.677,210.74
575.0,-5636.0,-70571.0,1201.0,575.0,-5636.0,-70571.0,-565.934,-90.859,-1008.58,53.601,212.21
1544.0,-5310.0,-70670.0,1201.0,1544.0,-5310.0,-70670.0,-555.554,-89.341,-1011.96,59.892,213.7
2520.0,-4956.0,-70754.0,823.0,2520.0,-4956.0,-70754.0,-549.253,-85.036,-1012.89,66.018,215.2
3505.0,-4576.0,-70823.0,823.0,3505.0,-4576.0,-70823.0,-541.455,-77.733,-1016.81,71.957,217.07
4498.0,-4169.0,-70877.0,823.0,4498.0,-4169.0,-70877.0,-531.878,-70.526,-1018.45,77.564,218.69
5497.0,-3742.0,-70913.0,823.0,5497.0,-3742.0,-70913.0,-526.211,-58.568,-1017.06,82.199,220.04
6507.0,-3299.0,-70931.0,823.0,6507.0,-3299.0,-70931.0,-516.077,-42.335,-1021.19,85.933,222.27
7524.0,-2842.0,-70930.0,823.0,7524.0,-2842.0,-70930.0,-498.014,-28.208,-1029.9,88.964,223.64
8551.0,-2378.0,-70911.0,823.0,8551.0,-2378.0,-70911.0,-478.798,-15.746,-1037.16,90.636,225.58
9590.0,-1907.0,-70874.0,823.0,9590.0,-1907.0,-70874.0,-457.786,-2.178,-1046.13,91.89,227.66
10637.0,-1435.0,-70820.0,525.0,10637.0,-1435.0,-70820.0,-433.958,11.899,-1055.33,92.304,229.31
11698.0,-964.0,-70750.0,525.0,11698.0,-964.0,-70750.0,-407.866,26.155,-1061.52,91.908,231.86
12772.0,-493.0,-70666.0,525.0,12772.0,-493.0,-70666.0,-381.806,33.733,-1070.32,91.629,234.43
13858.0,-21.0,-70568.0,525.0,13858.0,-21.0,-70568.0,-358.231,35.105,-1084.3,91.07,236.87
14958.0,449.0,-70459.0,525.0,14958.0,449.0,-70459.0,-336.826,37.22,-1097.61,90.44,239.93
16068.0,923.0,-70337.0,525.0,16068.0,923.0,-70337.0,-322.409,35.378,-1105.46,90.138,242.18
17183.0,1401.0,-70205.0,525.0,17183.0,1401.0,-70205.0,-312.649,31.555,-1111.5,89.825,243.97
20541.0,2879.0,-69742.0,527.0,20541.0,2879.0,-69742.0,-286.276,10.3,-1126.2,91.513,246.2
21652.0,3393.0,-69566.0,527.0,21652.0,3393.0,-69566.0,-278.76,0.449,-1128.77,92.201,245.62
22754.0,3914.0,-69380.0,527.0,22754.0,3914.0,-69380.0,-270.138,-4.985,-1131.53,92.369,244.47
23850.0,4442.0,-69184.0,527.0,23850.0,4442.0,-69184.0,-258.286,-6.899,-1134.85,92.658,243.77
24935.0,4974.0,-68979.0,527.0,24935.0,4974.0,-68979.0,-243.138,-11.241,-1137.9,92.218,242.1
26012.0,5510.0,-68764.0,527.0,26012.0,5510.0,-68764.0,-225.279,-15.695,-1143.49,91.629,240.88
27081.0,6048.0,-68541.0,527.0,27081.0,6048.0,-68541.0,-204.824,-17.438,-1149.13,90.543,239.49
28137.0,6582.0,-68308.0,539.0,28137.0,6582.0,-68308.0,-184.734,-20.088,-1152.05,88.652,237.57
29186.0,7115.0,-68066.0,539.0,29186.0,7115.0,-68066.0,-162.889,-24.096,-1152.96,86.789,236.07
30226.0,7644.0,-67814.0,539.0,30226.0,7644.0,-67814.0,-139.003,-24.316,-1154.59,84.596,234.73
31261.0,8168.0,-67554.0,539.0,31261.0,8168.0,-67554.0,-113.982,-23.464,-1159.11,82.294,233.78
32293.0,8687.0,-67285.0,539.0,32293.0,8687.0,-67285.0,-90.257,-26.683,-1158.66,79.669,233.55
33323.0,9199.0,-67005.0,539.0,33323.0,9199.0,-67005.0,-70.359,-30.19,-1150.8,76.437,233.21
34350.0,9702.0,-66714.0,539.0,34350.0,9702.0,-66714.0,-51.246,-35.381,-1137.27,72.486,232.62
35370.0,10192.0,-66414.0,539.0,35370.0,10192.0,-66414.0,-30.121,-40.686,-1122.55,68.011,231.34
36380.0,10670.0,-66103.0,554.0,36380.0,10670.0,-66103.0,-9.901,-42.897,-1109.01,63.634,229.56
37378.0,11135.0,-65781.0,554.0,37378.0,11135.0,-65781.0,9.403,-45.135,-1093.02,58.84,227.04
38361.0,11590.0,-65448.0,554.0,38361.0,11590.0,-65448.0,28.878,-47.582,-1074.57,54.598,224.04
39328.0,12036.0,-65104.0,554.0,39328.0,12036.0,-65104.0,44.032,-51.994,-1054.41,50.391,220.97
40274.0,12474.0,-64748.0,554.0,40274.0,12474.0,-64748.0,57.907,-61.055,-1036.95,46.294,216.88
41200.0,12908.0,-64381.0,554.0,41200.0,12908.0,-64381.0,74.185,-71.729,-1024.6,43.085,213.07
42103.0,13335.0,-64008.0,554.0,42103.0,13335.0,-64008.0,91.815,-78.913,-1016.32,39.681,208.57
42980.0,13754.0,-63631.0,554.0,42980.0,13754.0,-63631.0,108.138,-85.566,-1014.49,36.785,203.4
43831.0,14166.0,-63252.0,376.0,43831.0,14166.0,-63252.0,125.162,-99.172,-1014.18,34.015,198.54
44653.0,14570.0,-62874.0,376.0,44653.0,14570.0,-62874.0,142.977,-116.178,-1012.59,31.654,192.61
45446.0,14972.0,-62498.0,376.0,45446.0,14972.0,-62498.0,158.347,-135.605,-1015.94,30.207,187.08
46213.0,15374.0,-62125.0,376.0,46213.0,15374.0,-62125.0,175.937,-158.598,-1019.2,29.825,181.71
46954.0,15779.0,-61759.0,376.0,46954.0,15779.0,-61759.0,195.809,-180.034,-1016.62,30.354,176.24
47674.0,16190.0,-61398.0,376.0,47674.0,16190.0,-61398.0,221.313,-195.491,-1007.48,31.289,171.53
48374.0,16605.0,-61044.0,376.0,48374.0,16605.0,-61044.0,250.388,-206.033,-992.28,32.403,166.69
49055.0,17024.0,-60696.0,376.0,49055.0,17024.0,-60696.0,272.252,-214.493,-971.43,33.331,162.1
49721.0,17447.0,-60351.0,357.0,49721.0,17447.0,-60351.0,292.946,-220.69,-946.96,33.986,158.03
50372.0,17875.0,-60009.0,357.0,50372.0,17875.0,-60009.0,316.527,-226.788,-921.14,34.47,154.39
51011.0,18305.0,-59667.0,357.0,51011.0,18305.0,-59667.0,336.377,-226.24,-893.65,34.729,151.1
51637.0,18740.0,-59325.0,357.0,51637.0,18740.0,-59325.0,348.185,-219.069,-866.61,34.916,147.74
52246.0,19178.0,-58979.0,357.0,52246.0,19178.0,-58979.0,357.929,-212.247,-839.91,35.047,143.86
52834.0,19620.0,-58631.0,357.0,52834.0,19620.0,-58631.0,368.815,-200.545,-815.41,34.837,139.4
53399.0,20064.0,-58278.0,357.0,53399.0,20064.0,-58278.0,374.978,-185.765,-798.17,34.443,134.75
53939.0,20509.0,-57918.0,357.0,53939.0,20509.0,-57918.0,381.507,-176.218,-787.2,33.272,130.08
54454.0,20952.0,-57552.0,335.0,54454.0,20952.0,-57552.0,389.787,-170.344,-779.37,31.588,125.28
54945.0,21392.0,-57178.0,335.0,54945.0,21392.0,-57178.0,398.431,-159.539,-770.53,29.468,120.96
55413.0,21824.0,-56798.0,335.0,55413.0,21824.0,-56798.0,412.93,-146.772,-763.49,26.902,116.36
55857.0,22252.0,-56409.0,335.0,55857.0,22252.0,-56409.0,430.488,-138.073,-759.01,24.458,112.1
56280.0,22675.0,-56011.0,335.0,56280.0,22675.0,-56011.0,447.375,-129.52,-751.5,21.759,108.23
56683.0,23090.0,-55605.0,335.0,56683.0,23090.0,-55605.0,466.627,-120.396,-741.35,18.734,104.16
57069.0,23498.0,-55189.0,335.0,57069.0,23498.0,-55189.0,485.719,-113.93,-731.94,15.405,101.05
57436.0,23895.0,-54765.0,335.0,57436.0,23895.0,-54765.0,501.443,-109.581,-722.79,11.668,97.66
57790.0,24281.0,-54334.0,341.0,57790.0,24281.0,-54334.0,516.616,-104.29,-708.73,8.11,94.88
58132.0,24654.0,-53901.0,341.0,58132.0,24654.0,-53901.0,531.532,-100.736,-694.69,4.457,92.28
58459.0,25009.0,-53468.0,341.0,58459.0,25009.0,-53468.0,545.661,-101.864,-684.0,1.003,89.21
58774.0,25345.0,-53038.0,341.0,58774.0,25345.0,-53038.0,556.795,-104.265,-670.36,-2.74,86.33
59075.0,25658.0,-52617.0,341.0,59075.0,25658.0,-52617.0,565.21,-107.798,-656.31,-6.293,82.87
59359.0,25948.0,-52206.0,341.0,59359.0,25948.0,-52206.0,571.955,-115.684,-647.63,-9.489,79.27
59628.0,26216.0,-51806.0,341.0,59628.0,26216.0,-51806.0,576.944,-127.482,-640.88,-12.409,75.69
59877.0,26460.0,-51423.0,341.0,59877.0,26460.0,-51423.0,578.135,-142.66,-635.42,-14.586,71.44
60106.0,26679.0,-51060.0,356.0,60106.0,26679.0,-51060.0,578.105,-158.997,-629.75,-16.737,66.72
60311.0,26870.0,-50722.0,356.0,60311.0,26870.0,-50722.0,582.161,-174.145,-623.61,-18.297,61.11
60490.0,27030.0,-50414.0,356.0,60490.0,27030.0,-50414.0,584.89,-188.778,-622.49,-19.435,55.11
60639.0,27160.0,-50139.0,356.0,60639.0,27160.0,-50139.0,585.474,-203.018,-623.61,-20.06,48.54
60761.0,27263.0,-49898.0,356.0,60761.0,27263.0,-49898.0,592.443,-216.781,-625.93,-19.916,42.06
60855.0,27342.0,-49688.0,356.0,60855.0,27342.0,-49688.0,602.474,-229.987,-625.7,-19.381,35.63
60921.0,27395.0,-49513.0,356.0,60921.0,27395.0,-49513.0,611.686,-237.942,-622.82,-18.488,28.84
60963.0,27428.0,-49366.0,356.0,60963.0,27428.0,-49366.0,623.397,-240.913,-618.44,-17.819,23.14
60981.0,27434.0,-49251.0,380.0,60981.0,27434.0,-49251.0,635.022,-239.985,-612.03,-17.633,17.19
60981.0,27415.0,-49163.0,380.0,60981.0,27415.0,-49163.0,648.076,-234.983,-606.09,-17.907,12.29
60965.0,27369.0,-49099.0,380.0,60965.0,27369.0,-49099.0,660.384,-226.101,-595.8,-18.963,7.9
60934.0,27295.0,-49058.0,380.0,60934.0,27295.0,-49058.0,668.605,-213.706,-583.13,-20.588,3.95
60894.0,27194.0,-49034.0,380.0,60894.0,27194.0,-49034.0,675.988,-203.054,-571.6,-22.899,0.87
60845.0,27065.0,-49025.0,380.0,60845.0,27065.0,-49025.0,682.542,-192.004,-560.08,-26.008,-1.71
60788.0,26907.0,-49028.0,380.0,60788.0,26907.0,-49028.0,685.252,-179.584,-546.13,-29.361,-4.15
60727.0,26721.0,-49041.0,380.0,60727.0,26721.0,-49041.0,684.753,-169.384,-534.6,-33.307,-5.74
60657.0,26504.0,-49065.0,419.0,60657.0,26504.0,-49065.0,684.264,-165.716,-530.57,-37.516,-7.85
60582.0,26259.0,-49096.0,419.0,60582.0,26259.0,-49096.0,683.719,-165.206,-527.92,-41.972,-9.33
60501.0,25986.0,-49133.0,419.0,60501.0,25986.0,-49133.0,682.927,-166.587,-526.19,-46.605,-10.74
60410.0,25690.0,-49177.0,419.0,60410.0,25690.0,-49177.0,682.47,-175.109,-526.72,-50.377,-12.79
60313.0,25373.0,-49225.0,419.0,60313.0,25373.0,-49225.0,682.58,-187.586,-528.99,-53.643,-14.33
60203.0,25038.0,-49284.0,419.0,60203.0,25038.0,-49284.0,683.558,-202.767,-535.57,-55.908,-16.77
60083.0,24689.0,-49352.0,419.0,60083.0,24689.0,-49352.0,685.348,-218.737,-541.57,-57.464,-19.09
59952.0,24330.0,-49426.0,419.0,59952.0,24330.0,-49426.0,688.023,-232.498,-546.67,-58.369,-21.35
59811.0,23966.0,-49506.0,471.0,59811.0,23966.0,-49506.0,691.602,-244.577,-552.17,-58.59,-23.48
59659.0,23604.0,-49589.0,471.0,59659.0,23604.0,-49589.0,698.237,-257.343,-555.04,-58.083,-25.74
59499.0,23246.0,-49672.0,471.0,59499.0,23246.0,-49672.0,705.335,-266.03,-555.66,-57.358,-27.46
59330.0,22891.0,-49757.0,471.0,59330.0,22891.0,-49757.0,709.721,-268.081,-552.25,-56.701,-29.35
59155.0,22541.0,-49840.0,471.0,59155.0,22541.0,-49840.0,714.441,-265.39,-549.34,-56.118,-30.84
58976.0,22192.0,-49920.0,471.0,58976.0,22192.0,-49920.0,719.443,-258.535,-547.48,-56.433,-31.78
58791.0,21842.0,-49995.0,471.0,58791.0,21842.0,-49995.0,723.71,-250.162,-542.86,-57.218,-32.9
58603.0,21491.0,-50064.0,471.0,58603.0,21491.0,-50064.0,727.493,-240.928,-538.51,-58.698,-33.63
58413.0,21131.0,-50125.0,504.0,58413.0,21131.0,-50125.0,732.99,-228.414,-532.34,-61.469,-34.22
58221.0,20760.0,-50180.0,504.0,58221.0,20760.0,-50180.0,738.021,-213.468,-528.51,-64.773,-34.78
58026.0,20376.0,-50226.0,504.0,58026.0,20376.0,-50226.0,742.242,-203.854,-529.96,-68.959,-35.06
57830.0,19975.0,-50264.0,504.0,57830.0,19975.0,-50264.0,748.859,-196.841,-532.8,-73.554,-35.29
57630.0,19558.0,-50295.0,504.0,57630.0,19558.0,-50295.0,752.978,-190.71,-537.27,-77.725,-35.76
57430.0,19127.0,-50319.0,504.0,57430.0,19127.0,-50319.0,756.669,-190.96,-541.39,-81.853,-35.89
57229.0,18687.0,-50336.0,504.0,57229.0,18687.0,-50336.0,763.667,-194.216,-544.94,-85.161,-36.01
57028.0,18240.0,-50346.0,504.0,57028.0,18240.0,-50346.0,770.606,-198.914,-548.63,-87.562,-35.95
56829.0,17795.0,-50347.0,550.0,56829.0,17795.0,-50347.0,777.39,-209.891,-552.02,-89.215,-35.51
56631.0,17357.0,-50338.0,550.0,56631.0,17357.0,-50338.0,784.601,-226.029,-555.27,-89.555,-35.21
56437.0,16931.0,-50320.0,550.0,56437.0,16931.0,-50320.0,791.889,-238.731,-556.1,-89.177,-34.62
56246.0,16520.0,-50291.0,550.0,56246.0,16520.0,-50291.0,796.82,-250.501,-554.59,-88.179,-33.84
56060.0,16126.0,-50251.0,550.0,56060.0,16126.0,-50251.0,801.652,-262.763,-551.24,-86.791,-33.13
55879.0,15750.0,-50200.0,550.0,55879.0,15750.0,-50200.0,806.875,-269.879,-545.96,-85.48,-32.25
55702.0,15391.0,-50138.0,550.0,55702.0,15391.0,-50138.0,806.919,-275.069,-538.89,-83.989,-31.55
55527.0,15051.0,-50062.0,550.0,55527.0,15051.0,-50062.0,804.629,-280.032,-532.35,-82.641,-30.91
55356.0,14727.0,-49974.0,601.0,55356.0,14727.0,-49974.0,805.883,-280.056,-528.7,-81.498,-30.36
55185.0,14417.0,-49874.0,601.0,55185.0,14417.0,-49874.0,804.85,-276.141,-525.07,-80.611,-30.14
55013.0,14121.0,-49761.0,601.0,55013.0,14121.0,-49761.0,798.627,-274.408,-521.1,-80.036,-30.19
54836.0,13835.0,-49637.0,601.0,54836.0,13835.0,-49637.0,796.014,-272.62,-519.78,-79.868,-30.98
54652.0,13557.0,-49504.0,601.0,54652.0,13557.0,-49504.0,794.708,-267.66,-523.23,-79.606,-32.26
54458.0,13286.0,-49363.0,601.0,54458.0,13286.0,-49363.0,793.039,-262.678,-528.5,-79.32,-34.13
54251.0,13025.0,-49212.0,601.0,54251.0,13025.0,-49212.0,797.034,-262.32,-535.05,-78.867,-36.48
54031.0,12777.0,-49053.0,601.0,54031.0,12777.0,-49053.0,799.179,-265.39,-543.78,-77.722,-38.66
53800.0,12543.0,-48884.0,658.0,53800.0,12543.0,-48884.0,798.588,-268.029,-549.68,-76.571,-40.8
53560.0,12324.0,-48705.0,658.0,53560.0,12324.0,-48705.0,804.237,-270.293,-552.75,-75.171,-42.41
53315.0,12123.0,-48515.0,658.0,53315.0,12123.0,-48515.0,810.327,-272.245,-556.53,-73.299,-43.38
53065.0,11937.0,-48314.0,658.0,53065.0,11937.0,-48314.0,812.783,-273.205,-558.21,-72.001,-44.3
52815.0,11771.0,-48101.0,658.0,52815.0,11771.0,-48101.0,815.182,-275.465,-557.34,-70.037,-44.49
52564.0,11624.0,-47874.0,658.0,52564.0,11624.0,-47874.0,817.124,-279.14,-557.02,-68.321,-44.36
52316.0,11493.0,-47634.0,658.0,52316.0,11493.0,-47634.0,817.782,-281.593,-557.03,-67.082,-43.81
52074.0,11379.0,-47380.0,658.0,52074.0,11379.0,-47380.0,817.126,-278.602,-554.63,-66.01,-42.53
51837.0,11272.0,-47113.0,721.0,51837.0,11272.0,-47113.0,815.293,-273.529,-552.38,-66.227,-41.22
51611.0,11171.0,-46833.0,721.0,51611.0,11171.0,-46833.0,812.524,-269.882,-550.68,-67.082,-39.08
51396.0,11071.0,-46541.0,721.0,51396.0,11071.0,-46541.0,806.564,-264.547,-546.51,-68.64,-36.8
51194.0,10969.0,-46237.0,721.0,51194.0,10969.0,-46237.0,800.186,-257.713,-540.11,-70.557,-34.26
51005.0,10865.0,-45921.0,721.0,51005.0,10865.0,-45921.0,796.599,-252.769,-534.24,-72.694,-31.59
50824.0,10761.0,-45595.0,721.0,50824.0,10761.0,-45595.0,788.068,-251.695,-528.72,-74.195,-29.88
50648.0,10658.0,-45260.0,721.0,50648.0,10658.0,-45260.0,774.723,-251.463,-523.12,-75.263,-28.66
50472.0,10558.0,-44919.0,721.0,50472.0,10558.0,-44919.0,763.353,-253.829,-519.84,-75.539,-28.62
50291.0,10467.0,-44574.0,710.0,50291.0,10467.0,-44574.0,753.365,-263.581,-518.72,-74.512,-29.43
50100.0,10386.0,-44225.0,710.0,50100.0,10386.0,-44225.0,744.188,-279.055,-519.24,-73.045,-31.27
49897.0,10320.0,-43877.0,710.0,49897.0,10320.0,-43877.0,736.512,-294.166,-521.73,-70.482,-33.53
49678.0,10270.0,-43530.0,710.0,49678.0,10270.0,-43530.0,730.541,-308.954,-528.51,-66.993,-36.49
49442.0,10237.0,-43188.0,710.0,49442.0,10237.0,-43188.0,726.154,-323.984,-534.8,-63.071,-39.8
49191.0,10224.0,-42850.0,710.0,49191.0,10224.0,-42850.0,725.384,-334.088,-537.81,-58.475,-43.03
48920.0,10227.0,-42519.0,710.0,48920.0,10227.0,-42519.0,730.402,-339.998,-543.68,-54.173,-47.02
48632.0,10243.0,-42195.0,710.0,48632.0,10243.0,-42195.0,735.26,-343.105,-550.01,-50.348,-50.68
48326.0,10264.0,-41881.0,735.0,48326.0,10264.0,-41881.0,739.021,-341.072,-550.99,-47.626,-54.51
48003.0,10283.0,-41576.0,735.0,48003.0,10283.0,-41576.0,747.398,-335.073,-552.37,-46.167,-58.22
47668.0,10293.0,-41282.0,735.0,47668.0,10293.0,-41282.0,757.091,-324.016,-554.84,-46.156,-61.18
47324.0,10285.0,-40998.0,735.0,47324.0,10285.0,-40998.0,764.414,-310.613,-552.21,-47.744,-63.68
46973.0,10255.0,-40723.0,735.0,46973.0,10255.0,-40723.0,767.985,-296.101,-547.47,-50.268,-65.5
46619.0,10198.0,-40458.0,735.0,46619.0,10198.0,-40458.0,770.604,-280.309,-546.23,-53.717,-66.56
46263.0,10114.0,-40202.0,735.0,46263.0,10114.0,-40202.0,774.88,-268.23,-544.91,-57.271,-67.44
45908.0,10005.0,-39955.0,735.0,45908.0,10005.0,-39955.0,777.628,-261.671,-542.81,-60.583,-67.88
45554.0,9875.0,-39717.0,766.0,45554.0,9875.0,-39717.0,776.568,-256.643,-543.33,-63.545,-68.25
45199.0,9725.0,-39489.0,766.0,45199.0,9725.0,-39489.0,772.583,-254.452,-543.71,-65.657,-68.71
44844.0,9562.0,-39270.0,766.0,44844.0,9562.0,-39270.0,768.567,-256.886,-543.43,-66.863,-69.11
44487.0,9391.0,-39063.0,766.0,44487.0,9391.0,-39063.0,764.742,-262.123,-543.24,-66.896,-69.97
44127.0,9220.0,-38867.0,766.0,44127.0,9220.0,-38867.0,758.66,-269.025,-545.33,-65.49,-70.95
43761.0,9053.0,-38680.0,766.0,43761.0,9053.0,-38680.0,753.438,-277.273,-552.1,-63.229,-72.28
43390.0,8895.0,-38503.0,766.0,43390.0,8895.0,-38503.0,747.199,-286.343,-558.17,-60.277,-73.63
43011.0,8747.0,-38333.0,766.0,43011.0,8747.0,-38333.0,739.351,-291.558,-561.11,-57.314,-75.23
42626.0,8607.0,-38170.0,801.0,42626.0,8607.0,-38170.0,735.57,-293.564,-564.52,-54.693,-76.75
42234.0,8474.0,-38012.0,801.0,42234.0,8474.0,-38012.0,732.937,-296.536,-568.37,-52.459,-78.34
41834.0,8346.0,-37858.0,801.0,41834.0,8346.0,-37858.0,730.371,-296.258,-574.55,-50.898,-80.18
41427.0,8219.0,-37707.0,801.0,41427.0,8219.0,-37707.0,728.41,-291.032,-578.48,-50.176,-81.7
40590.0,7952.0,-37403.0,801.0,40590.0,7952.0,-37403.0,729.104,-273.572,-584.08,-51.587,-84.95
40163.0,7806.0,-37246.0,801.0,40163.0,7806.0,-37246.0,736.117,-267.389,-588.56,-53.585,-86.23
39732.0,7650.0,-37085.0,801.0,39732.0,7650.0,-37085.0,739.163,-262.142,-592.42,-56.148,-87.22
39301.0,7483.0,-36917.0,839.0,39301.0,7483.0,-36917.0,741.123,-258.97,-594.13,-58.893,-87.58
38870.0,7305.0,-36742.0,839.0,38870.0,7305.0,-36742.0,743.373,-256.047,-593.38,-61.613,-87.84
38441.0,7120.0,-36559.0,839.0,38441.0,7120.0,-36559.0,744.843,-251.929,-593.28,-63.887,-87.48
38016.0,6934.0,-36367.0,839.0,38016.0,6934.0,-36367.0,745.845,-256.091,-593.24,-65.307,-87.03
37594.0,6750.0,-36168.0,839.0,37594.0,6750.0,-36168.0,743.897,-264.752,-592.95,-65.821,-86.43
37176.0,6574.0,-35960.0,839.0,37176.0,6574.0,-35960.0,741.602,-272.847,-592.68,-65.132,-85.89
36760.0,6416.0,-35744.0,839.0,36760.0,6416.0,-35744.0,734.655,-285.753,-589.93,-62.887,-85.41
36345.0,6279.0,-35522.0,839.0,36345.0,6279.0,-35522.0,725.005,-300.658,-587.24,-59.562,-85.29
35929.0,6168.0,-35293.0,884.0,35929.0,6168.0,-35293.0,716.82,-311.805,-589.89,-55.129,-85.41
35510.0,6085.0,-35061.0,884.0,35510.0,6085.0,-35061.0,709.047,-320.055,-594.66,-50.066,-86.04
35084.0,6027.0,-34827.0,884.0,35084.0,6027.0,-34827.0,701.769,-326.33,-600.83,-45.142,-87.23
34648.0,5994.0,-34591.0,884.0,34648.0,5994.0,-34591.0,695.391,-330.921,-611.73,-40.219,-89.02
34200.0,5981.0,-34355.0,884.0,34200.0,5981.0,-34355.0,689.867,-329.68,-622.29,-35.999,-91.27
33738.0,5980.0,-34119.0,884.0,33738.0,5980.0,-34119.0,685.312,-321.227,-632.21,-32.991,-94.04
33260.0,5986.0,-33884.0,884.0,33260.0,5986.0,-33884.0,686.56,-310.268,-647.31,-30.931,-97.18
32766.0,5990.0,-33649.0,884.0,32766.0,5990.0,-33649.0,691.026,-295.196,-664.67,-30.445,-100.26
32257.0,5986.0,-33415.0,931.0,32257.0,5986.0,-33415.0,697.27,-278.301,-678.57,-31.197,-103.64
31734.0,5972.0,-33181.0,931.0,31734.0,5972.0,-33181.0,706.082,-263.195,-689.93,-32.304,-106.55
31197.0,5944.0,-32948.0,931.0,31197.0,5944.0,-32948.0,712.039,-251.495,-699.54,-34.651,-109.79
30647.0,5897.0,-32716.0,931.0,30647.0,5897.0,-32716.0,715.136,-240.497,-709.48,-37.292,-112.48
30087.0,5834.0,-32486.0,931.0,30087.0,5834.0,-32486.0,720.832,-227.012,-719.67,-39.727,-114.86
29521.0,5752.0,-32261.0,931.0,29521.0,5752.0,-32261.0,728.198,-222.662,-726.99,-42.569,-116.53
28954.0,5658.0,-32038.0,931.0,28954.0,5658.0,-32038.0,731.521,-224.244,-734.3,-44.351,-117.11
28385.0,5551.0,-31821.0,931.0,28385.0,5551.0,-31821.0,733.552,-223.316,-739.72,-46.096,-118.04
27819.0,5432.0,-31610.0,986.0,27819.0,5432.0,-31610.0,737.563,-228.022,-744.74,-47.727,-117.95
27252.0,5304.0,-31405.0,986.0,27252.0,5304.0,-31405.0,742.648,-240.515,-752.51,-48.882,-118.81
26684.0,5170.0,-31210.0,986.0,26684.0,5170.0,-31210.0,748.637,-253.756,-759.88,-49.407,-119.53
26117.0,5031.0,-31025.0,986.0,26117.0,5031.0,-31025.0,753.601,-265.628,-766.85,-49.409,-119.95
25546.0,4891.0,-30853.0,986.0,25546.0,4891.0,-30853.0,760.385,-277.532,-773.99,-48.781,-121.33
24976.0,4752.0,-30692.0,986.0,24976.0,4752.0,-30692.0,767.545,-287.652,-781.16,-47.512,-121.97
24403.0,4612.0,-30543.0,986.0,24403.0,4612.0,-30543.0,770.066,-293.939,-790.98,-46.758,-123.06
23827.0,4475.0,-30406.0,986.0,23827.0,4475.0,-30406.0,773.821,-299.737,-800.76,-45.156,-124.39
23247.0,4341.0,-30280.0,1046.0,23247.0,4341.0,-30280.0,777.128,-303.337,-810.14,-43.489,-125.57
22660.0,4208.0,-30166.0,1046.0,22660.0,4208.0,-30166.0,771.473,-299.717,-820.11,-42.201,-127.27
22065.0,4076.0,-30064.0,1046.0,22065.0,4076.0,-30064.0,765.017,-292.453,-830.14,-40.688,-129.12
21463.0,3942.0,-29972.0,1046.0,21463.0,3942.0,-29972.0,763.326,-284.899,-840.14,-39.942,-130.9
20854.0,3803.0,-29889.0,1046.0,20854.0,3803.0,-29889.0,759.125,-278.435,-847.76,-39.841,-132.65
20237.0,3662.0,-29814.0,1046.0,20237.0,3662.0,-29814.0,754.553,-270.688,-855.46,-39.555,-134.47
19613.0,3515.0,-29746.0,1046.0,19613.0,3515.0,-29746.0,753.0,-261.353,-861.29,-39.976,-136.31
18983.0,3364.0,-29682.0,1046.0,18983.0,3364.0,-29682.0,753.261,-255.915,-864.39,-40.208,-137.82
18349.0,3210.0,-29620.0,1182.0,18349.0,3210.0,-29620.0,755.214,-251.754,-870.48,-40.358,-139.22
17712.0,3053.0,-29562.0,1182.0,17712.0,3053.0,-29562.0,756.428,-247.671,-876.77,-40.802,-140.33
17074.0,2894.0,-29505.0,1182.0,17074.0,2894.0,-29505.0,754.375,-246.482,-877.57,-40.876,-140.81
16434.0,2734.0,-29450.0,1182.0,16434.0,2734.0,-29450.0,752.096,-245.285,-876.33,-40.951,-141.6
15794.0,2574.0,-29396.0,1182.0,15794.0,2574.0,-29396.0,747.575,-243.569,-878.57,-40.885,-141.76
15156.0,2413.0,-29344.0,1182.0,15156.0,2413.0,-29344.0,740.025,-241.55,-878.53,-40.671,-141.63
14518.0,2252.0,-29295.0,1182.0,14518.0,2252.0,-29295.0,730.239,-236.407,-875.58,-40.568,-141.95
13879.0,2090.0,-29249.0,1182.0,13879.0,2090.0,-29249.0,715.754,-230.689,-873.59,-40.468,-142.08
13232.0,1924.0,-29208.0,1184.0,13232.0,1924.0,-29208.0,696.727,-222.369,-869.64,-40.536,-143.35
12575.0,1755.0,-29173.0,1184.0,12575.0,1755.0,-29173.0,671.473,-210.905,-863.41,-40.691,-145.17
11904.0,1582.0,-29144.0,1184.0,11904.0,1582.0,-29144.0,644.966,-199.889,-860.24,-40.973,-147.79
11211.0,1405.0,-29123.0,1184.0,11211.0,1405.0,-29123.0,618.087,-186.834,-859.8,-40.902,-151.58
10495.0,1231.0,-29111.0,1184.0,10495.0,1231.0,-29111.0,592.121,-173.882,-861.05,-39.618,-155.67
9752.0,1067.0,-29107.0,1184.0,9752.0,1067.0,-29107.0,577.462,-164.365,-866.44,-37.157,-161.15
8983.0,920.0,-29110.0,1184.0,8983.0,920.0,-29110.0,566.14,-154.8,-873.68,-33.366,-166.39
8188.0,790.0,-29119.0,1184.0,8188.0,790.0,-29119.0,551.788,-144.79,-884.76,-29.352,-171.55
7370.0,680.0,-29132.0,1183.0,7370.0,680.0,-29132.0,543.744,-141.533,-897.64,-25.505,-176.26
6538.0,585.0,-29149.0,1183.0,6538.0,585.0,-29149.0,543.862,-141.809,-909.11,-22.328,-179.49
5693.0,502.0,-29169.0,1183.0,5693.0,502.0,-29169.0,547.385,-139.277,-920.35,-19.804,-182.41
4840.0,428.0,-29192.0,1183.0,4840.0,428.0,-29192.0,549.117,-133.157,-934.01,-17.992,-184.67
3981.0,357.0,-29215.0,1183.0,3981.0,357.0,-29215.0,551.141,-124.528,-942.72,-17.274,-186.33
3117.0,283.0,-29239.0,1183.0,3117.0,283.0,-29239.0,549.053,-111.988,-946.29,-17.506,-187.86
2248.0,199.0,-29262.0,1183.0,2248.0,199.0,-29262.0,539.466,-96.301,-949.04,-18.976,-188.88
1379.0,101.0,-29284.0,1183.0,1379.0,101.0,-29284.0,528.661,-80.941,-947.69,-21.499,-188.97
508.0,-16.0,-29306.0,1182.0,508.0,-16.0,-29306.0,519.501,-63.85,-946.75,-25.143,-189.64
-362.0,-159.0,-29328.0,1182.0,-362.0,-159.0,-29328.0,511.324,-42.203,-944.57,-29.648,-189.86
-1235.0,-329.0,-29348.0,1182.0,-1235.0,-329.0,-29348.0,497.467,-21.176,-939.87,-34.391,-190.05
-2110.0,-523.0,-29369.0,1182.0,-2110.0,-523.0,-29369.0,483.497,-5.242,-933.62,-38.732,-190.74
-2985.0,-734.0,-29392.0,1182.0,-2985.0,-734.0,-29392.0,471.53,4.962,-930.03,-41.99,-190.62
-3861.0,-954.0,-29417.0,1182.0,-3861.0,-954.0,-29417.0,455.471,10.741,-934.09,-43.93,-190.65
-4739.0,-1178.0,-29444.0,1182.0,-4739.0,-1178.0,-29444.0,440.678,13.39,-937.22,-44.791,-190.98
-5615.0,-1397.0,-29475.0,1182.0,-5615.0,-1397.0,-29475.0,423.023,11.49,-936.58,-44.26,-190.61
-6493.0,-1606.0,-29510.0,1183.0,-6493.0,-1606.0,-29510.0,398.782,3.39,-938.98,-42.679,-190.43
-7370.0,-1797.0,-29550.0,1183.0,-7370.0,-1797.0,-29550.0,371.833,-9.857,-946.35,-39.856,-189.82
-8244.0,-1962.0,-29595.0,1183.0,-8244.0,-1962.0,-29595.0,351.171,-23.175,-957.5,-35.553,-188.94
-9114.0,-2098.0,-29645.0,1183.0,-9114.0,-2098.0,-29645.0,335.663,-36.807,-967.55,-30.545,-188.12
-9979.0,-2202.0,-29700.0,1183.0,-9979.0,-2202.0,-29700.0,315.945,-47.45,-974.67,-24.762,-187.02
-10838.0,-2274.0,-29759.0,1183.0,-10838.0,-2274.0,-29759.0,297.707,-53.167,-979.95,-19.047,-185.44
-11686.0,-2317.0,-29821.0,1183.0,-11686.0,-2317.0,-29821.0,277.473,-58.309,-983.43,-13.7,-183.15
-12521.0,-2336.0,-29885.0,1183.0,-12521.0,-2336.0,-29885.0,258.462,-59.099,-987.46,-9.155,-180.34
-13339.0,-2336.0,-29950.0,1184.0,-13339.0,-2336.0,-29950.0,247.045,-55.953,-991.91,-5.602,-177.07
-14139.0,-2322.0,-30014.0,1184.0,-14139.0,-2322.0,-30014.0,238.833,-48.358,-991.53,-2.601,-173.64
-14921.0,-2302.0,-30075.0,1184.0,-14921.0,-2302.0,-30075.0,231.251,-31.89,-989.21,-0.809,-170.24
-15686.0,-2279.0,-30131.0,1184.0,-15686.0,-2279.0,-30131.0,225.114,-14.868,-985.71,0.376,-166.88
-16432.0,-2259.0,-30180.0,1184.0,-16432.0,-2259.0,-30180.0,220.785,-0.417,-982.37,0.544,-163.61
-17162.0,-2248.0,-30219.0,1184.0,-17162.0,-2248.0,-30219.0,211.467,15.842,-984.46,-0.48,-160.54
-17876.0,-2251.0,-30247.0,1184.0,-17876.0,-2251.0,-30247.0,202.035,31.788,-986.32,-1.979,-157.43
-18574.0,-2269.0,-30265.0,1184.0,-18574.0,-2269.0,-30265.0,196.668,42.83,-987.07,-4.25,-154.68
-19258.0,-2303.0,-30272.0,1186.0,-19258.0,-2303.0,-30272.0,191.38,50.327,-988.27,-6.488,-151.88
-19929.0,-2353.0,-30269.0,1186.0,-19929.0,-2353.0,-30269.0,184.151,55.644,-991.73,-8.859,-149.81
-20590.0,-2416.0,-30257.0,1186.0,-20590.0,-2416.0,-30257.0,175.663,58.885,-999.99,-10.817,-147.82
-21242.0,-2492.0,-30238.0,1186.0,-21242.0,-2492.0,-30238.0,166.089,58.362,-1009.85,-12.853,-146.38
-21887.0,-2578.0,-30212.0,1186.0,-21887.0,-2578.0,-30212.0,155.071,57.023,-1018.79,-14.653,-145.14
-22525.0,-2674.0,-30183.0,1186.0,-22525.0,-2674.0,-30183.0,144.92,57.988,-1027.55,-16.172,-143.76
-23155.0,-2778.0,-30152.0,1186.0,-23155.0,-2778.0,-30152.0,135.596,58.166,-1038.69,-17.702,-142.49
-23776.0,-2888.0,-30122.0,1186.0,-23776.0,-2888.0,-30122.0,126.245,59.873,-1047.29,-18.881,-140.61
-24387.0,-3003.0,-30094.0,1193.0,-24387.0,-3003.0,-30094.0,116.896,61.264,-1052.9,-20.049,-138.87
-24986.0,-3123.0,-30070.0,1193.0,-24986.0,-3123.0,-30070.0,105.083,63.439,-1061.69,-21.424,-136.59
-25573.0,-3251.0,-30052.0,1193.0,-25573.0,-3251.0,-30052.0,92.792,69.46,-1065.92,-23.273,-134.15
-26149.0,-3385.0,-30041.0,1193.0,-26149.0,-3385.0,-30041.0,77.852,75.716,-1064.77,-25.101,-131.66
-27267.0,-3678.0,-30049.0,1193.0,-27267.0,-3678.0,-30049.0,41.134,92.028,-1056.55,-29.586,-126.48
-27811.0,-3833.0,-30068.0,1193.0,-27811.0,-3833.0,-30068.0,19.904,94.235,-1050.67,-31.558,-123.8
-28344.0,-3990.0,-30100.0,1193.0,-28344.0,-3990.0,-30100.0,0.522,96.004,-1045.67,-33.222,-121.15
-28866.0,-4147.0,-30143.0,1106.0,-28866.0,-4147.0,-30143.0,-13.775,98.014,-1040.21,-34.47,-118.7
-29377.0,-4305.0,-30198.0,1106.0,-29377.0,-4305.0,-30198.0,-28.848,96.735,-1037.29,-35.912,-115.96
-29881.0,-4461.0,-30264.0,1106.0,-29881.0,-4461.0,-30264.0,-49.223,95.661,-1031.97,-36.753,-113.95
-30377.0,-4614.0,-30340.0,1106.0,-30377.0,-4614.0,-30340.0,-68.802,90.617,-1026.13,-37.524,-111.99
-30867.0,-4759.0,-30426.0,1106.0,-30867.0,-4759.0,-30426.0,-86.806,76.388,-1025.62,-37.715,-110.22
-31354.0,-4895.0,-30522.0,1106.0,-31354.0,-4895.0,-30522.0,-104.699,61.69,-1027.05,-37.368,-109.14
-31836.0,-5022.0,-30625.0,1106.0,-31836.0,-5022.0,-30625.0,-119.663,49.339,-1027.44,-36.943,-108.0
-32316.0,-5139.0,-30737.0,1106.0,-32316.0,-5139.0,-30737.0,-131.935,37.485,-1025.24,-36.193,-107.31
-32795.0,-5244.0,-30856.0,927.0,-32795.0,-5244.0,-30856.0,-142.025,26.214,-1020.77,-35.382,-106.73
-33268.0,-5340.0,-30984.0,927.0,-33268.0,-5340.0,-30984.0,-149.624,17.584,-1019.26,-34.757,-105.59
-33733.0,-5427.0,-31120.0,927.0,-33733.0,-5427.0,-31120.0,-152.621,13.806,-1017.95,-34.282,-103.83
-34185.0,-5506.0,-31266.0,927.0,-34185.0,-5506.0,-31266.0,-151.296,11.799,-1013.47,-33.96,-101.2
-34618.0,-5580.0,-31421.0,927.0,-34618.0,-5580.0,-31421.0,-148.78,13.276,-1009.37,-34.149,-97.55
-35028.0,-5648.0,-31587.0,927.0,-35028.0,-5648.0,-31587.0,-147.559,18.815,-1003.42,-34.301,-93.04
-35417.0,-5714.0,-31761.0,927.0,-35417.0,-5714.0,-31761.0,-147.544,27.382,-995.01,-34.772,-88.44
-35776.0,-5775.0,-31945.0,927.0,-35776.0,-5775.0,-31945.0,-148.712,36.842,-984.89,-34.971,-82.58
-36110.0,-5832.0,-32136.0,928.0,-36110.0,-5832.0,-32136.0,-153.723,44.728,-975.18,-34.885,-77.13
-36415.0,-5884.0,-32335.0,928.0,-36415.0,-5884.0,-32335.0,-164.681,51.758,-968.4,-34.627,-71.11
-36692.0,-5927.0,-32539.0,928.0,-36692.0,-5927.0,-32539.0,-176.075,56.169,-961.37,-33.849,-65.15
-36947.0,-5966.0,-32747.0,928.0,-36947.0,-5966.0,-32747.0,-187.326,58.275,-951.47,-33.262,-60.27
-37179.0,-5998.0,-32957.0,928.0,-37179.0,-5998.0,-32957.0,-203.773,58.945,-942.0,-32.517,-55.16
-37393.0,-6026.0,-33166.0,928.0,-37393.0,-6026.0,-33166.0,-221.718,55.639,-937.76,-31.662,-51.25
-37591.0,-6050.0,-33374.0,928.0,-37591.0,-6050.0,-33374.0,-237.479,48.694,-935.54,-30.99,-47.59
-37772.0,-6070.0,-33581.0,928.0,-37772.0,-6070.0,-33581.0,-249.351,43.362,-932.19,-30.336,-44.13
-37937.0,-6088.0,-33784.0,959.0,-37937.0,-6088.0,-33784.0,-254.805,41.27,-933.49,-29.741,-40.96
-38085.0,-6106.0,-33986.0,959.0,-38085.0,-6106.0,-33986.0,-256.716,38.829,-939.49,-29.626,-37.58
-38211.0,-6123.0,-34188.0,959.0,-38211.0,-6123.0,-34188.0,-258.298,36.126,-939.46,-29.579,-33.45
-38317.0,-6138.0,-34391.0,959.0,-38317.0,-6138.0,-34391.0,-259.167,35.819,-936.51,-29.517,-29.26
-38396.0,-6153.0,-34598.0,959.0,-38396.0,-6153.0,-34598.0,-259.447,39.505,-937.44,-29.73,-23.98
-38448.0,-6165.0,-34808.0,959.0,-38448.0,-6165.0,-34808.0,-260.079,42.022,-938.26,-29.741,-18.54
-38473.0,-6173.0,-35024.0,959.0,-38473.0,-6173.0,-35024.0,-261.723,45.608,-936.04,-29.686,-13.13
-38472.0,-6182.0,-35245.0,959.0,-38472.0,-6182.0,-35245.0,-267.125,51.571,-931.79,-30.079,-7.43
-38447.0,-6190.0,-35470.0,1137.0,-38447.0,-6190.0,-35470.0,-276.302,54.269,-928.05,-30.303,-2.4
-38398.0,-6196.0,-35699.0,1137.0,-38398.0,-6196.0,-35699.0,-288.605,52.0,-924.58,-30.573,2.76
-38329.0,-6198.0,-35933.0,1137.0,-38329.0,-6198.0,-35933.0,-306.135,48.226,-923.32,-30.556,7.31
-38243.0,-6196.0,-36170.0,1137.0,-38243.0,-6196.0,-36170.0,-325.828,43.062,-924.46,-29.962,11.38
-38142.0,-6188.0,-36409.0,1137.0,-38142.0,-6188.0,-36409.0,-341.91,35.936,-927.26,-29.279,14.61
-38032.0,-6176.0,-36648.0,1137.0,-38032.0,-6176.0,-36648.0,-357.064,31.82,-932.12,-28.439,16.99
-37911.0,-6160.0,-36886.0,1137.0,-37911.0,-6160.0,-36886.0,-371.724,26.123,-936.49,-27.743,19.27
-37783.0,-6141.0,-37123.0,1137.0,-37783.0,-6141.0,-37123.0,-380.032,17.852,-940.33,-27.042,20.97
-37645.0,-6119.0,-37360.0,1162.0,-37645.0,-6119.0,-37360.0,-387.144,10.954,-941.95,-26.406,23.1
-37498.0,-6093.0,-37596.0,1162.0,-37498.0,-6093.0,-37596.0,-391.676,6.888,-943.57,-25.713,25.16
-37340.0,-6064.0,-37832.0,1162.0,-37340.0,-6064.0,-37832.0,-390.193,7.386,-945.73,-24.987,27.28
-37168.0,-6035.0,-38066.0,1162.0,-37168.0,-6035.0,-38066.0,-386.867,9.586,-945.25,-24.433,29.96
-36981.0,-6004.0,-38301.0,1162.0,-36981.0,-6004.0,-38301.0,-382.337,10.733,-942.47,-23.987,32.99
-36777.0,-5971.0,-38536.0,1162.0,-36777.0,-5971.0,-38536.0,-378.933,11.598,-935.49,-23.692,36.52
-36317.0,-5908.0,-39013.0,1162.0,-36317.0,-5908.0,-39013.0,-378.52,12.294,-925.74,-23.943,43.93
-36064.0,-5877.0,-39254.0,1033.0,-36064.0,-5877.0,-39254.0,-383.77,14.441,-922.12,-24.168,47.11
-35799.0,-5848.0,-39496.0,1033.0,-35799.0,-5848.0,-39496.0,-389.494,13.79,-920.42,-24.306,50.04
-35523.0,-5818.0,-39738.0,1033.0,-35523.0,-5818.0,-39738.0,-395.625,9.977,-921.16,-24.141,52.3
-35239.0,-5788.0,-39980.0,1033.0,-35239.0,-5788.0,-39980.0,-404.544,6.837,-921.31,-23.694,54.38
-34950.0,-5756.0,-40218.0,1033.0,-34950.0,-5756.0,-40218.0,-415.33,3.863,-923.58,-23.103,55.58
-34659.0,-5725.0,-40453.0,1033.0,-34659.0,-5725.0,-40453.0,-422.277,0.791,-928.24,-22.61,56.26
-34367.0,-5694.0,-40683.0,1033.0,-34367.0,-5694.0,-40683.0,-427.847,-4.22,-932.21,-22.046,56.58
-34078.0,-5665.0,-40908.0,1033.0,-34078.0,-5665.0,-40908.0,-432.783,-8.804,-938.29,-22.024,56.05
-33791.0,-5640.0,-41128.0,1220.0,-33791.0,-5640.0,-41128.0,-433.887,-9.948,-942.08,-21.928,55.79
-33508.0,-5620.0,-41343.0,1220.0,-33508.0,-5620.0,-41343.0,-434.141,-8.622,-943.04,-22.183,55.15
-33229.0,-5607.0,-41554.0,1220.0,-33229.0,-5607.0,-41554.0,-431.748,-5.368,-944.85,-22.817,54.3
-32951.0,-5600.0,-41761.0,1220.0,-32951.0,-5600.0,-41761.0,-426.623,-0.139,-942.15,-23.495,53.93
-32677.0,-5603.0,-41966.0,1220.0,-32677.0,-5603.0,-41966.0,-419.935,4.429,-937.04,-24.755,53.33
-32406.0,-5614.0,-42170.0,1220.0,-32406.0,-5614.0,-42170.0,-414.05,8.198,-930.72,-26.063,52.93
-32136.0,-5634.0,-42374.0,1220.0,-32136.0,-5634.0,-42374.0,-409.385,11.661,-922.17,-27.512,52.86
-31869.0,-5662.0,-42582.0,1220.0,-31869.0,-5662.0,-42582.0,-407.785,16.874,-914.24,-29.102,52.6
-31604.0,-5694.0,-42793.0,1211.0,-31604.0,-5694.0,-42793.0,-411.819,19.211,-909.04,-30.376,52.63
-31342.0,-5728.0,-43012.0,1211.0,-31342.0,-5728.0,-43012.0,-416.008,15.918,-908.31,-31.275,52.44
-31084.0,-5759.0,-43240.0,1211.0,-31084.0,-5759.0,-43240.0,-422.409,11.046,-909.35,-31.62,51.94
-30835.0,-5782.0,-43476.0,1211.0,-30835.0,-5782.0,-43476.0,-429.643,2.47,-911.77,-31.105,50.92
-30595.0,-5796.0,-43721.0,1211.0,-30595.0,-5796.0,-43721.0,-436.371,-7.782,-916.35,-30.175,49.38
-30366.0,-5799.0,-43976.0,1211.0,-30366.0,-5799.0,-43976.0,-445.49,-16.399,-925.28,-29.023,47.72
-30148.0,-5789.0,-44239.0,1211.0,-30148.0,-5789.0,-44239.0,-451.672,-26.269,-933.67,-27.545,45.87
-29939.0,-5766.0,-44511.0,1211.0,-29939.0,-5766.0,-44511.0,-456.862,-37.309,-938.71,-26.006,44.47
-29736.0,-5732.0,-44790.0,1203.0,-29736.0,-5732.0,-44790.0,-459.571,-46.908,-946.6,-24.502,43.22
-29539.0,-5687.0,-45076.0,1203.0,-29539.0,-5687.0,-45076.0,-456.726,-50.685,-950.13,-23.021,42.23
-29346.0,-5637.0,-45366.0,1203.0,-29346.0,-5637.0,-45366.0,-452.027,-49.519,-948.33,-22.164,41.59
-29155.0,-5586.0,-45659.0,1203.0,-29155.0,-5586.0,-45659.0,-445.744,-47.304,-948.03,-22.035,41.14
-28963.0,-5536.0,-45955.0,1203.0,-28963.0,-5536.0,-45955.0,-437.734,-43.858,-945.86,-22.196,41.19
-28770.0,-5493.0,-46253.0,1203.0,-28770.0,-5493.0,-46253.0,-431.026,-36.64,-938.82,-23.35,41.5
-28573.0,-5460.0,-46550.0,1203.0,-28573.0,-5460.0,-46550.0,-425.425,-26.429,-932.54,-24.807,42.25
-28371.0,-5441.0,-46846.0,1203.0,-28371.0,-5441.0,-46846.0,-415.809,-18.585,-926.97,-27.018,43.17
-28164.0,-5439.0,-47142.0,1195.0,-28164.0,-5439.0,-47142.0,-407.12,-10.393,-921.06,-29.971,44.17
-27950.0,-5455.0,-47435.0,1195.0,-27950.0,-5455.0,-47435.0,-402.396,-0.8,-917.69,-32.953,45.5
-27731.0,-5491.0,-47728.0,1195.0,-27731.0,-5491.0,-47728.0,-397.574,4.795,-914.14,-36.491,46.57
-27507.0,-5543.0,-48019.0,1195.0,-27507.0,-5543.0,-48019.0,-394.887,4.861,-910.0,-39.459,47.71
-27279.0,-5610.0,-48311.0,1195.0,-27279.0,-5610.0,-48311.0,-396.785,2.923,-910.87,-42.295,48.72
-27050.0,-5689.0,-48602.0,1195.0,-27050.0,-5689.0,-48602.0,-397.595,1.869,-913.9,-44.477,49.24
-26819.0,-5776.0,-48893.0,1195.0,-26819.0,-5776.0,-48893.0,-399.497,-3.148,-915.76,-46.113,49.8
-26588.0,-5868.0,-49184.0,1195.0,-26588.0,-5868.0,-49184.0,-405.779,-14.35,-919.82,-47.135,49.97
-26360.0,-5960.0,-49475.0,1192.0,-26360.0,-5960.0,-49475.0,-410.667,-27.731,-923.83,-47.549,49.87
-26134.0,-6050.0,-49766.0,1192.0,-26134.0,-6050.0,-49766.0,-416.449,-40.727,-927.28,-47.328,49.72
-25912.0,-6133.0,-50057.0,1192.0,-25912.0,-6133.0,-50057.0,-424.284,-51.652,-931.01,-46.121,49.24
-25694.0,-6209.0,-50348.0,1192.0,-25694.0,-6209.0,-50348.0,-428.573,-63.33,-934.58,-44.758,48.78
-25479.0,-6272.0,-50640.0,1192.0,-25479.0,-6272.0,-50640.0,-432.394,-76.165,-935.79,-42.64,48.4
-25269.0,-6325.0,-50932.0,1192.0,-25269.0,-6325.0,-50932.0,-439.109,-84.99,-934.78,-40.692,48.01
-25061.0,-6368.0,-51224.0,1192.0,-25061.0,-6368.0,-51224.0,-443.208,-92.985,-932.0,-38.783,47.81
-24855.0,-6400.0,-51517.0,1192.0,-24855.0,-6400.0,-51517.0,-444.75,-99.083,-927.23,-36.671,47.8
-24649.0,-6424.0,-51811.0,1187.0,-24649.0,-6424.0,-51811.0,-447.341,-100.498,-923.04,-34.958,48.01
-24441.0,-6440.0,-52106.0,1187.0,-24441.0,-6440.0,-52106.0,-450.704,-100.771,-916.89,-33.32,48.61
-24232.0,-6450.0,-52402.0,1187.0,-24232.0,-6450.0,-52402.0,-452.126,-98.002,-908.29,-31.779,49.31
-24020.0,-6456.0,-52698.0,1187.0,-24020.0,-6456.0,-52698.0,-454.045,-94.309,-902.78,-30.755,50.24
-23804.0,-6459.0,-52994.0,1187.0,-23804.0,-6459.0,-52994.0,-457.014,-88.024,-897.58,-29.721,51.3
-23584.0,-6461.0,-53289.0,1187.0,-23584.0,-6461.0,-53289.0,-457.878,-80.623,-891.68,-29.003,52.12
-23361.0,-6463.0,-53582.0,1187.0,-23361.0,-6463.0,-53582.0,-459.102,-75.251,-888.39,-28.598,53.05
-23136.0,-6465.0,-53873.0,1187.0,-23136.0,-6465.0,-53873.0,-461.04,-70.647,-884.96,-28.133,53.65
-22910.0,-6470.0,-54161.0,1182.0,-22910.0,-6470.0,-54161.0,-460.309,-66.502,-883.34,-27.886,54.0
-22682.0,-6475.0,-54443.0,1182.0,-22682.0,-6475.0,-54443.0,-461.785,-65.065,-884.24,-27.465,54.21
-22458.0,-6481.0,-54720.0,1182.0,-22458.0,-6481.0,-54720.0,-465.706,-65.888,-884.47,-26.891,53.79
-22236.0,-6487.0,-54990.0,1182.0,-22236.0,-6487.0,-54990.0,-465.924,-63.706,-884.42,-26.393,53.26
-22018.0,-6494.0,-55255.0,1182.0,-22018.0,-6494.0,-55255.0,-467.613,-63.353,-886.87,-25.692,52.65
-21803.0,-6500.0,-55513.0,1182.0,-21803.0,-6500.0,-55513.0,-469.303,-65.587,-889.2,-24.985,51.81
-21592.0,-6504.0,-55765.0,1182.0,-21592.0,-6504.0,-55765.0,-469.631,-66.466,-891.01,-24.129,51.24
-21386.0,-6507.0,-56012.0,1182.0,-21386.0,-6507.0,-56012.0,-472.189,-66.638,-893.1,-23.282,50.23
-21186.0,-6509.0,-56255.0,1181.0,-21186.0,-6509.0,-56255.0,-471.961,-64.181,-895.16,-22.615,49.1
-20991.0,-6511.0,-56494.0,1181.0,-20991.0,-6511.0,-56494.0,-468.848,-59.222,-899.64,-22.106,48.12
-20799.0,-6516.0,-56729.0,1181.0,-20799.0,-6516.0,-56729.0,-466.799,-56.901,-901.64,-22.008,47.2
-20610.0,-6520.0,-56961.0,1181.0,-20610.0,-6520.0,-56961.0,-467.653,-54.737,-903.22,-21.72,46.9
-20421.0,-6526.0,-57193.0,1181.0,-20421.0,-6526.0,-57193.0,-468.577,-49.835,-908.04,-21.54,46.96
-20230.0,-6530.0,-57423.0,1181.0,-20230.0,-6530.0,-57423.0,-467.054,-47.906,-912.39,-21.152,47.1
-20039.0,-6532.0,-57656.0,1181.0,-20039.0,-6532.0,-57656.0,-468.719,-46.706,-916.34,-20.495,47.51
-19849.0,-6531.0,-57889.0,1181.0,-19849.0,-6531.0,-57889.0,-471.477,-45.034,-918.11,-19.763,47.51
-19659.0,-6524.0,-58124.0,1181.0,-19659.0,-6524.0,-58124.0,-474.057,-46.164,-919.81,-18.688,47.6
-19471.0,-6509.0,-58362.0,1181.0,-19471.0,-6509.0,-58362.0,-479.68,-49.578,-924.46,-17.286,47.62
-19285.0,-6485.0,-58603.0,1181.0,-19285.0,-6485.0,-58603.0,-483.143,-54.523,-926.3,-15.663,47.44
-19100.0,-6452.0,-58847.0,1181.0,-19100.0,-6452.0,-58847.0,-486.159,-56.351,-927.77,-13.935,47.4
-18919.0,-6409.0,-59094.0,1181.0,-18919.0,-6409.0,-59094.0,-489.558,-57.479,-932.38,-11.972,46.91
-18740.0,-6357.0,-59344.0,1181.0,-18740.0,-6357.0,-59344.0,-489.974,-61.11,-934.15,-10.414,46.65
-18561.0,-6298.0,-59596.0,1181.0,-18561.0,-6298.0,-59596.0,-487.607,-64.036,-937.89,-8.952,46.59
-18380.0,-6233.0,-59850.0,1181.0,-18380.0,-6233.0,-59850.0,-482.865,-63.942,-942.31,-7.825,46.93
-18002.0,-6096.0,-60364.0,1176.0,-18002.0,-6096.0,-60364.0,-478.356,-60.094,-947.74,-6.63,49.06
-17803.0,-6026.0,-60624.0,1176.0,-17803.0,-6026.0,-60624.0,-473.158,-57.058,-949.79,-6.492,50.5
-16656.0,-5698.0,-61931.0,1176.0,-16656.0,-5698.0,-61931.0,-477.808,-31.827,-970.87,-6.13,61.37
-16392.0,-5639.0,-62188.0,1173.0,-16392.0,-5639.0,-62188.0,-481.751,-28.851,-977.22,-6.254,63.84
-16118.0,-5584.0,-62441.0,1173.0,-16118.0,-5584.0,-62441.0,-488.662,-27.666,-980.67,-6.616,66.25
-15831.0,-5532.0,-62690.0,1173.0,-15831.0,-5532.0,-62690.0,-495.158,-27.973,-986.68,-6.809,68.82
-15534.0,-5485.0,-62933.0,1173.0,-15534.0,-5485.0,-62933.0,-503.212,-27.464,-993.15,-7.208,71.06
-15227.0,-5440.0,-63172.0,1173.0,-15227.0,-5440.0,-63172.0,-511.051,-28.444,-996.43,-7.09,73.4
-14909.0,-5394.0,-63405.0,1173.0,-14909.0,-5394.0,-63405.0,-512.972,-34.075,-1002.21,-6.403,75.82
-14578.0,-5344.0,-63633.0,1173.0,-14578.0,-5344.0,-63633.0,-512.391,-43.542,-1008.26,-5.615,78.27
-14234.0,-5289.0,-63856.0,1173.0,-14234.0,-5289.0,-63856.0,-512.402,-54.188,-1013.57,-4.225,80.88
-13875.0,-5226.0,-64075.0,1172.0,-13875.0,-5226.0,-64075.0,-512.165,-61.524,-1019.2,-2.48,83.85
-13502.0,-5155.0,-64289.0,1172.0,-13502.0,-5155.0,-64289.0,-511.636,-66.009,-1024.79,-0.474,86.82
-13112.0,-5072.0,-64500.0,1172.0,-13112.0,-5072.0,-64500.0,-508.671,-70.89,-1032.76,2.056,90.09
-12703.0,-4977.0,-64707.0,1172.0,-12703.0,-4977.0,-64707.0,-505.892,-75.585,-1043.03,4.908,93.92
-12275.0,-4871.0,-64910.0,1172.0,-12275.0,-4871.0,-64910.0,-503.943,-74.956,-1052.8,7.589,97.8
-11824.0,-4756.0,-65109.0,1172.0,-11824.0,-4756.0,-65109.0,-502.217,-71.614,-1059.93,9.969,102.3
-11350.0,-4636.0,-65304.0,1172.0,-11350.0,-4636.0,-65304.0,-501.061,-66.725,-1064.87,11.873,107.18
-10851.0,-4512.0,-65491.0,1172.0,-10851.0,-4512.0,-65491.0,-498.002,-59.558,-1067.95,13.259,112.02
-10327.0,-4389.0,-65672.0,1174.0,-10327.0,-4389.0,-65672.0,-497.921,-50.642,-1066.65,14.129,117.29
-9776.0,-4267.0,-65844.0,1174.0,-9776.0,-4267.0,-65844.0,-496.357,-40.34,-1063.38,14.923,122.54
-9200.0,-4147.0,-66007.0,1174.0,-9200.0,-4147.0,-66007.0,-491.978,-33.73,-1058.48,15.585,127.81
-8597.0,-4028.0,-66162.0,1174.0,-8597.0,-4028.0,-66162.0,-488.734,-28.337,-1048.94,16.045,133.32
-7966.0,-3907.0,-66307.0,1174.0,-7966.0,-3907.0,-66307.0,-483.15,-25.754,-1042.16,17.423,138.97
-7308.0,-3782.0,-66443.0,1174.0,-7308.0,-3782.0,-66443.0,-477.328,-26.532,-1033.7,18.642,144.52
-6621.0,-3652.0,-66571.0,1174.0,-6621.0,-3652.0,-66571.0,-474.22,-26.941,-1021.97,20.314,150.48
-5906.0,-3515.0,-66690.0,1174.0,-5906.0,-3515.0,-66690.0,-472.714,-29.489,-1013.51,22.166,156.16
-5165.0,-3374.0,-66799.0,1179.0,-5165.0,-3374.0,-66799.0,-470.228,-31.822,-1009.9,23.572,161.71
-4398.0,-3225.0,-66901.0,1179.0,-4398.0,-3225.0,-66901.0,-467.033,-35.162,-1007.84,25.494,167.13
-3609.0,-3068.0,-66994.0,1179.0,-3609.0,-3068.0,-66994.0,-466.302,-42.328,-1002.41,27.428,171.88
-2799.0,-2899.0,-67078.0,1179.0,-2799.0,-2899.0,-67078.0,-467.535,-50.315,-999.21,29.956,176.43
-1970.0,-2717.0,-67154.0,1179.0,-1970.0,-2717.0,-67154.0,-470.167,-56.939,-999.08,32.712,180.46
-1125.0,-2520.0,-67220.0,1179.0,-1125.0,-2520.0,-67220.0,-472.095,-62.969,-997.99,35.885,184.37
-264.0,-2306.0,-67277.0,1179.0,-264.0,-2306.0,-67277.0,-473.224,-68.905,-996.65,39.524,187.9
611.0,-2074.0,-67324.0,1179.0,611.0,-2074.0,-67324.0,-473.958,-77.143,-997.77,43.047,191.41
1502.0,-1821.0,-67362.0,1182.0,1502.0,-1821.0,-67362.0,-471.721,-87.701,-1001.13,47.145,194.54
2405.0,-1546.0,-67389.0,1182.0,2405.0,-1546.0,-67389.0,-469.185,-99.954,-1003.87,51.255,197.46
3320.0,-1249.0,-67405.0,1182.0,3320.0,-1249.0,-67405.0,-466.965,-111.814,-1006.33,55.514,200.27
4247.0,-928.0,-67411.0,1182.0,4247.0,-928.0,-67411.0,-462.02,-118.644,-1009.07,60.271,202.89
5186.0,-583.0,-67404.0,1182.0,5186.0,-583.0,-67404.0,-454.816,-123.558,-1014.17,64.806,205.51
6137.0,-215.0,-67386.0,1182.0,6137.0,-215.0,-67386.0,-445.888,-129.71,-1021.58,69.173,208.25
7101.0,173.0,-67355.0,1182.0,7101.0,173.0,-67355.0,-435.317,-133.619,-1026.03,73.139,211.18
8080.0,580.0,-67311.0,1182.0,8080.0,580.0,-67311.0,-425.548,-135.225,-1027.92,76.279,214.35
9074.0,1000.0,-67253.0,530.0,9074.0,1000.0,-67253.0,-416.466,-135.414,-1030.6,78.884,217.68
10082.0,1432.0,-67181.0,530.0,10082.0,1432.0,-67181.0,-405.233,-129.469,-1033.61,80.749,220.75
11102.0,1870.0,-67095.0,530.0,11102.0,1870.0,-67095.0,-392.196,-120.09,-1036.48,82.008,223.5
12133.0,2313.0,-66994.0,530.0,12133.0,2313.0,-66994.0,-375.5,-110.72,-1036.89,82.389,225.85
13174.0,2758.0,-66879.0,530.0,13174.0,2758.0,-66879.0,-357.26,-100.461,-1034.95,82.502,227.95
14223.0,3202.0,-66749.0,530.0,14223.0,3202.0,-66749.0,-339.968,-91.651,-1035.99,81.954,229.91
15280.0,3648.0,-66606.0,530.0,15280.0,3648.0,-66606.0,-320.257,-84.165,-1037.23,81.401,231.69
16346.0,4093.0,-66452.0,530.0,16346.0,4093.0,-66452.0,-297.76,-79.568,-1037.73,80.682,233.48
17419.0,4538.0,-66286.0,516.0,17419.0,4538.0,-66286.0,-275.213,-75.556,-1043.35,79.768,235.27
18500.0,4982.0,-66111.0,516.0,18500.0,4982.0,-66111.0,-254.825,-70.969,-1048.96,78.837,236.8
19587.0,5427.0,-65926.0,516.0,19587.0,5427.0,-65926.0,-233.925,-70.949,-1053.53,77.893,238.34
20678.0,5872.0,-65732.0,516.0,20678.0,5872.0,-65732.0,-212.291,-72.486,-1058.61,76.981,239.35
21771.0,6318.0,-65530.0,516.0,21771.0,6318.0,-65530.0,-195.64,-74.403,-1063.72,76.002,240.01
22862.0,6766.0,-65320.0,516.0,22862.0,6766.0,-65320.0,-183.672,-77.607,-1069.03,75.307,240.24
23949.0,7216.0,-65103.0,516.0,23949.0,7216.0,-65103.0,-173.137,-81.718,-1071.96,74.422,239.88
25029.0,7671.0,-64878.0,516.0,25029.0,7671.0,-64878.0,-164.374,-91.76,-1074.9,74.204,239.12
26098.0,8134.0,-64647.0,522.0,26098.0,8134.0,-64647.0,-155.308,-107.738,-1078.34,74.111,237.56
27155.0,8604.0,-64410.0,522.0,27155.0,8604.0,-64410.0,-143.317,-121.652,-1079.15,74.008,235.32
28195.0,9080.0,-64169.0,522.0,28195.0,9080.0,-64169.0,-128.863,-131.9,-1077.82,74.23,232.33
29216.0,9560.0,-63926.0,522.0,29216.0,9560.0,-63926.0,-112.024,-140.129,-1077.13,73.929,228.71
30217.0,10042.0,-63681.0,522.0,30217.0,10042.0,-63681.0,-90.337,-148.608,-1074.41,73.308,224.59
31197.0,10522.0,-63436.0,522.0,31197.0,10522.0,-63436.0,-68.427,-155.068,-1074.14,72.357,220.31
32154.0,10995.0,-63192.0,522.0,32154.0,10995.0,-63192.0,-46.775,-159.231,-1077.0,70.443,215.9
33092.0,11457.0,-62950.0,522.0,33092.0,11457.0,-62950.0,-22.099,-164.255,-1076.77,68.029,211.6
34011.0,11907.0,-62711.0,539.0,34011.0,11907.0,-62711.0,4.842,-163.034,-1074.24,65.377,207.57
34913.0,12339.0,-62474.0,539.0,34913.0,12339.0,-62474.0,30.987,-157.808,-1070.33,61.73,203.68
35799.0,12753.0,-62240.0,539.0,35799.0,12753.0,-62240.0,53.951,-155.314,-1069.32,58.07,200.29
36669.0,13149.0,-62007.0,539.0,36669.0,13149.0,-62007.0,71.523,-156.41,-1068.81,54.151,196.98
37524.0,13527.0,-61774.0,539.0,37524.0,13527.0,-61774.0,83.706,-160.139,-1062.88,50.156,193.85
38362.0,13891.0,-61543.0,539.0,38362.0,13891.0,-61543.0,100.403,-166.317,-1057.29,46.883,190.45
39183.0,14243.0,-61312.0,539.0,39183.0,14243.0,-61312.0,116.526,-174.691,-1050.25,43.904,186.69
39982.0,14584.0,-61083.0,539.0,39982.0,14584.0,-61083.0,127.832,-179.942,-1038.16,41.496,182.37
40760.0,14918.0,-60856.0,464.0,40760.0,14918.0,-60856.0,139.289,-184.282,-1026.76,39.582,177.77
41515.0,15248.0,-60630.0,464.0,41515.0,15248.0,-60630.0,151.102,-190.702,-1016.01,38.563,173.08
42250.0,15576.0,-60405.0,464.0,42250.0,15576.0,-60405.0,165.529,-195.497,-1004.81,37.635,168.71
42965.0,15903.0,-60182.0,464.0,42965.0,15903.0,-60182.0,182.985,-196.012,-991.27,37.284,164.45
43661.0,16228.0,-59958.0,464.0,43661.0,16228.0,-59958.0,202.981,-190.636,-975.36,36.629,160.24
44338.0,16547.0,-59736.0,464.0,44338.0,16547.0,-59736.0,221.066,-180.007,-960.21,35.554,155.95
44994.0,16860.0,-59514.0,464.0,44994.0,16860.0,-59514.0,236.932,-164.957,-947.84,34.227,151.4
45629.0,17163.0,-59290.0,464.0,45629.0,17163.0,-59290.0,253.654,-150.393,-935.21,32.183,146.96
46243.0,17456.0,-59065.0,431.0,46243.0,17456.0,-59065.0,272.775,-136.893,-922.03,29.669,142.38
46834.0,17735.0,-58837.0,431.0,46834.0,17735.0,-58837.0,289.062,-123.98,-911.48,26.507,137.9
47401.0,17999.0,-58607.0,431.0,47401.0,17999.0,-58607.0,302.236,-112.506,-903.27,23.044,132.94
47942.0,18248.0,-58374.0,431.0,47942.0,18248.0,-58374.0,318.403,-105.045,-899.13,19.439,127.87
48455.0,18483.0,-58137.0,431.0,48455.0,18483.0,-58137.0,332.23,-106.125,-896.84,15.908,122.3
48937.0,18704.0,-57899.0,431.0,48937.0,18704.0,-57899.0,345.241,-110.011,-891.17,12.641,116.42
49389.0,18914.0,-57658.0,431.0,49389.0,18914.0,-57658.0,361.479,-115.601,-882.98,9.56,110.45
49810.0,19116.0,-57416.0,431.0,49810.0,19116.0,-57416.0,380.104,-126.381,-877.73,7.165,104.32
50201.0,19313.0,-57170.0,395.0,50201.0,19313.0,-57170.0,398.664,-138.645,-872.69,5.272,98.39
50564.0,19510.0,-56921.0,395.0,50564.0,19510.0,-56921.0,414.71,-151.37,-862.18,4.138,92.91
50902.0,19709.0,-56667.0,395.0,50902.0,19709.0,-56667.0,428.792,-162.517,-847.31,3.531,87.66
51216.0,19912.0,-56409.0,395.0,51216.0,19912.0,-56409.0,441.101,-174.139,-831.15,3.077,82.85
51508.0,20121.0,-56147.0,395.0,51508.0,20121.0,-56147.0,453.48,-184.394,-813.27,3.083,78.4
51779.0,20333.0,-55882.0,395.0,51779.0,20333.0,-55882.0,460.939,-190.257,-793.32,3.152,73.97
52029.0,20549.0,-55617.0,395.0,52029.0,20549.0,-55617.0,465.29,-197.831,-776.16,3.371,69.85
52259.0,20767.0,-55353.0,395.0,52259.0,20767.0,-55353.0,470.107,-203.013,-761.65,3.861,65.52
52468.0,20984.0,-55095.0,395.0,52468.0,20984.0,-55095.0,469.629,-202.778,-751.29,4.226,61.19
52654.0,21199.0,-54844.0,395.0,52654.0,21199.0,-54844.0,468.655,-203.838,-742.85,4.819,56.56
52818.0,21408.0,-54603.0,395.0,52818.0,21408.0,-54603.0,470.909,-206.279,-735.69,5.205,51.89
53079.0,21798.0,-54158.0,395.0,53079.0,21798.0,-54158.0,479.694,-213.408,-734.64,5.045,42.31
53177.0,21972.0,-53956.0,395.0,53177.0,21972.0,-53956.0,491.974,-213.673,-737.52,4.312,37.86
53256.0,22131.0,-53770.0,395.0,53256.0,22131.0,-53770.0,503.705,-214.778,-739.69,3.831,33.55
53319.0,22277.0,-53598.0,395.0,53319.0,22277.0,-53598.0,515.349,-217.487,-739.22,3.212,29.63
53367.0,22408.0,-53439.0,388.0,53367.0,22408.0,-53439.0,525.195,-215.425,-734.33,2.447,26.24
53402.0,22526.0,-53292.0,388.0,53402.0,22526.0,-53292.0,535.084,-213.977,-727.59,1.867,22.86
53424.0,22633.0,-53156.0,388.0,53424.0,22633.0,-53156.0,545.269,-213.709,-719.33,1.173,19.78
53437.0,22727.0,-53029.0,388.0,53437.0,22727.0,-53029.0,549.921,-210.587,-708.97,0.288,17.15
53440.0,22809.0,-52913.0,388.0,53440.0,22809.0,-52913.0,551.664,-204.974,-694.38,-0.365,14.49
53435.0,22879.0,-52806.0,388.0,53435.0,22879.0,-52806.0,553.812,-199.547,-677.77,-1.473,12.24
53421.0,22936.0,-52707.0,388.0,53421.0,22936.0,-52707.0,555.685,-194.361,-666.88,-2.791,9.9
53398.0,22976.0,-52619.0,388.0,53398.0,22976.0,-52619.0,554.824,-184.082,-658.49,-4.234,7.47
53365.0,22997.0,-52539.0,406.0,53365.0,22997.0,-52539.0,551.428,-173.653,-648.89,-6.526,5.08
53322.0,22995.0,-52470.0,406.0,53322.0,22995.0,-52470.0,551.282,-166.886,-646.25,-9.146,2.65
53268.0,22970.0,-52412.0,406.0,53268.0,22970.0,-52412.0,554.188,-159.932,-648.3,-12.099,0.1
53202.0,22918.0,-52366.0,406.0,53202.0,22918.0,-52366.0,559.145,-152.938,-650.96,-15.382,-2.64
53123.0,22839.0,-52334.0,406.0,53123.0,22839.0,-52334.0,566.743,-149.034,-655.46,-18.442,-5.66
53031.0,22735.0,-52315.0,406.0,53031.0,22735.0,-52315.0,574.517,-148.002,-661.97,-21.246,-8.91
52925.0,22606.0,-52310.0,406.0,52925.0,22606.0,-52310.0,582.625,-149.365,-672.82,-23.993,-12.02
52806.0,22455.0,-52318.0,406.0,52806.0,22455.0,-52318.0,591.342,-155.25,-683.08,-26.165,-14.97
52677.0,22287.0,-52337.0,431.0,52677.0,22287.0,-52337.0,602.648,-162.86,-689.94,-28.233,-17.32
52542.0,22105.0,-52364.0,431.0,52542.0,22105.0,-52364.0,614.095,-171.396,-694.87,-29.785,-19.15
52402.0,21914.0,-52398.0,431.0,52402.0,21914.0,-52398.0,624.899,-183.648,-697.75,-30.748,-20.55
52260.0,21716.0,-52438.0,431.0,52260.0,21716.0,-52438.0,635.668,-194.495,-701.02,-31.375,-21.58
52116.0,21514.0,-52484.0,431.0,52116.0,21514.0,-52484.0,643.378,-201.078,-702.33,-31.412,-22.22
51973.0,21308.0,-52535.0,431.0,51973.0,21308.0,-52535.0,647.823,-206.951,-698.75,-31.764,-22.64
51833.0,21099.0,-52589.0,431.0,51833.0,21099.0,-52589.0,649.48,-212.259,-691.13,-31.908,-22.5
51698.0,20887.0,-52645.0,431.0,51698.0,20887.0,-52645.0,650.731,-214.478,-684.48,-32.512,-21.99
51569.0,20670.0,-52701.0,449.0,51569.0,20670.0,-52701.0,649.414,-214.162,-678.63,-33.351,-21.22
51447.0,20452.0,-52756.0,449.0,51447.0,20452.0,-52756.0,647.442,-214.408,-670.03,-34.04,-20.05
51332.0,20229.0,-52808.0,449.0,51332.0,20229.0,-52808.0,645.911,-213.126,-661.63,-35.616,-18.93
51222.0,20002.0,-52856.0,449.0,51222.0,20002.0,-52856.0,641.897,-207.871,-656.33,-36.979,-17.87
51116.0,19770.0,-52899.0,449.0,51116.0,19770.0,-52899.0,638.255,-204.317,-653.14,-38.866,-16.9
51014.0,19535.0,-52934.0,449.0,51014.0,19535.0,-52934.0,635.502,-204.994,-651.75,-40.651,-16.16
50911.0,19299.0,-52962.0,449.0,50911.0,19299.0,-52962.0,633.058,-208.56,-652.32,-42.126,-15.78
50809.0,19062.0,-52982.0,449.0,50809.0,19062.0,-52982.0,633.813,-212.522,-657.25,-43.575,-15.47
50595.0,18598.0,-52998.0,501.0,50595.0,18598.0,-52998.0,641.365,-223.166,-665.06,-45.185,-16.11
50482.0,18374.0,-52993.0,501.0,50482.0,18374.0,-52993.0,645.609,-229.337,-668.43,-45.356,-16.58
50364.0,18159.0,-52979.0,501.0,50364.0,18159.0,-52979.0,650.867,-234.56,-677.72,-45.139,-17.25
50243.0,17955.0,-52955.0,501.0,50243.0,17955.0,-52955.0,654.117,-241.386,-683.45,-44.62,-17.51
50119.0,17765.0,-52919.0,501.0,50119.0,17765.0,-52919.0,657.593,-249.315,-683.7,-43.707,-17.57
49996.0,17589.0,-52872.0,501.0,49996.0,17589.0,-52872.0,661.681,-253.421,-682.59,-42.841,-17.31
49875.0,17425.0,-52814.0,501.0,49875.0,17425.0,-52814.0,665.373,-254.098,-680.0,-42.189,-16.86
49756.0,17273.0,-52744.0,518.0,49756.0,17273.0,-52744.0,668.621,-254.94,-675.23,-41.588,-16.07
49642.0,17132.0,-52662.0,518.0,49642.0,17132.0,-52662.0,668.849,-255.835,-670.94,-41.417,-15.09
49532.0,17000.0,-52568.0,518.0,49532.0,17000.0,-52568.0,668.407,-254.388,-667.09,-41.494,-13.88
49429.0,16877.0,-52462.0,518.0,49429.0,16877.0,-52462.0,665.287,-253.407,-660.74,-41.402,-12.31
49333.0,16763.0,-52344.0,518.0,49333.0,16763.0,-52344.0,661.22,-253.63,-652.1,-41.71,-10.85
49243.0,16656.0,-52214.0,518.0,49243.0,16656.0,-52214.0,657.415,-247.613,-646.57,-41.842,-9.33
49156.0,16556.0,-52074.0,518.0,49156.0,16556.0,-52074.0,650.762,-242.739,-643.75,-41.947,-8.33
49070.0,16463.0,-51924.0,518.0,49070.0,16463.0,-51924.0,641.74,-247.133,-640.03,-42.121,-7.8
48981.0,16380.0,-51764.0,615.0,48981.0,16380.0,-51764.0,633.542,-253.588,-638.39,-41.801,-8.01
48886.0,16304.0,-51599.0,615.0,48886.0,16304.0,-51599.0,626.213,-258.848,-639.27,-41.137,-8.91
48782.0,16238.0,-51428.0,615.0,48782.0,16238.0,-51428.0,619.545,-264.116,-641.9,-40.165,-10.23
48666.0,16182.0,-51254.0,615.0,48666.0,16182.0,-51254.0,616.311,-269.174,-646.51,-38.737,-12.34
48538.0,16135.0,-51079.0,615.0,48538.0,16135.0,-51079.0,616.595,-273.71,-653.02,-37.194,-14.39
48398.0,16097.0,-50902.0,615.0,48398.0,16097.0,-50902.0,617.37,-279.774,-659.1,-35.667,-16.62
48247.0,16068.0,-50725.0,615.0,48247.0,16068.0,-50725.0,621.156,-285.064,-664.79,-33.944,-18.76
48090.0,16043.0,-50549.0,615.0,48090.0,16043.0,-50549.0,630.547,-282.303,-673.09,-32.694,-20.19
47925.0,16019.0,-50377.0,678.0,47925.0,16019.0,-50377.0,639.419,-274.707,-679.02,-31.88,-21.7
47758.0,15991.0,-50208.0,678.0,47758.0,15991.0,-50208.0,644.685,-266.155,-682.16,-31.707,-22.47
47591.0,15957.0,-50041.0,678.0,47591.0,15957.0,-50041.0,649.608,-255.895,-683.77,-32.407,-22.62
47428.0,15913.0,-49878.0,678.0,47428.0,15913.0,-49878.0,656.154,-244.144,-683.26,-33.726,-22.37
47272.0,15857.0,-49715.0,678.0,47272.0,15857.0,-49715.0,661.224,-233.847,-685.59,-35.651,-21.11
47124.0,15786.0,-49553.0,678.0,47124.0,15786.0,-49553.0,664.398,-222.756,-688.22,-38.158,-19.69
46984.0,15701.0,-49390.0,678.0,46984.0,15701.0,-49390.0,663.951,-210.265,-685.45,-41.009,-18.15
46853.0,15600.0,-49225.0,678.0,46853.0,15600.0,-49225.0,659.941,-199.474,-680.71,-44.124,-16.58
46727.0,15484.0,-49058.0,617.0,46727.0,15484.0,-49058.0,655.816,-194.783,-679.28,-47.387,-15.67
46603.0,15356.0,-48887.0,617.0,46603.0,15356.0,-48887.0,651.738,-195.285,-682.59,-50.294,-15.1
46477.0,15218.0,-48714.0,617.0,46477.0,15218.0,-48714.0,647.61,-197.173,-685.09,-52.694,-15.3
46346.0,15074.0,-48538.0,617.0,46346.0,15074.0,-48538.0,644.134,-202.758,-686.66,-54.316,-16.23
46207.0,14928.0,-48361.0,617.0,46207.0,14928.0,-48361.0,641.845,-209.81,-690.99,-55.089,-17.68
46058.0,14783.0,-48182.0,617.0,46058.0,14783.0,-48182.0,641.011,-219.408,-695.06,-55.198,-19.59
45898.0,14643.0,-48002.0,617.0,45898.0,14643.0,-48002.0,641.805,-232.109,-700.87,-54.648,-21.76
45727.0,14508.0,-47822.0,617.0,45727.0,14508.0,-47822.0,644.128,-246.765,-706.76,-53.714,-23.84
45546.0,14382.0,-47642.0,648.0,45546.0,14382.0,-47642.0,647.611,-261.303,-709.63,-52.419,-26.06
45357.0,14263.0,-47464.0,648.0,45357.0,14263.0,-47464.0,649.476,-271.131,-710.55,-50.817,-27.95
45161.0,14151.0,-47287.0,648.0,45161.0,14151.0,-47287.0,651.594,-279.705,-709.59,-49.404,-29.41
44961.0,14048.0,-47109.0,648.0,44961.0,14048.0,-47109.0,656.255,-288.288,-706.61,-47.904,-30.46
44763.0,13951.0,-46931.0,648.0,44763.0,13951.0,-46931.0,659.802,-294.114,-701.74,-46.784,-30.39
44569.0,13859.0,-46750.0,648.0,44569.0,13859.0,-46750.0,659.45,-298.229,-699.78,-46.268,-29.82
44382.0,13771.0,-46566.0,648.0,44382.0,13771.0,-46566.0,655.54,-298.973,-695.92,-46.026,-28.42
44205.0,13683.0,-46377.0,648.0,44205.0,13683.0,-46377.0,652.871,-294.101,-686.69,-46.597,-26.57
44039.0,13594.0,-46181.0,667.0,44039.0,13594.0,-46181.0,649.037,-286.982,-678.47,-47.501,-24.52
43882.0,13505.0,-45976.0,667.0,43882.0,13505.0,-45976.0,640.795,-282.516,-671.07,-48.717,-22.47
43732.0,13415.0,-45760.0,667.0,43732.0,13415.0,-45760.0,634.269,-279.904,-663.25,-50.266,-20.81
43588.0,13325.0,-45533.0,667.0,43588.0,13325.0,-45533.0,630.024,-275.782,-655.51,-51.74,-19.73
