theta,phi,psi,altitude,vx,vy,vz,accelx,accely,accelz,yaw1,yaw2
-815.0,972.0,120638.0,223.0,-815.0,972.0,120638.0,4.469,-22.379,-981.88,0.128,0.0
-816.0,972.0,120639.0,223.0,-816.0,972.0,120639.0,2.087,-24.688,-981.87,0.216,0.01
-818.0,974.0,120639.0,223.0,-818.0,974.0,120639.0,2.14,-27.055,-981.84,0.364,-0.23
-819.0,974.0,120640.0,223.0,-819.0,974.0,120640.0,4.998,-26.46,-979.39,0.27,-0.07
-820.0,975.0,120640.0,223.0,-820.0,975.0,120640.0,4.771,-26.199,-979.46,0.341,-0.11
-821.0,976.0,120641.0,223.0,-821.0,976.0,120641.0,4.465,-26.453,-982.4,0.266,-0.09
-822.0,977.0,120641.0,223.0,-822.0,977.0,120641.0,4.744,-26.346,-982.11,0.255,-0.07
-822.0,978.0,120642.0,223.0,-822.0,978.0,120642.0,4.654,-26.185,-979.24,0.305,0.02
-822.0,978.0,120642.0,223.0,-822.0,978.0,120642.0,4.634,-26.028,-977.12,0.297,-0.02
-822.0,979.0,120643.0,223.0,-822.0,979.0,120643.0,6.973,-26.044,-977.61,0.283,0.05
-822.0,980.0,120643.0,223.0,-822.0,980.0,120643.0,9.259,-26.062,-977.9,0.29,-0.02
-822.0,980.0,120644.0,223.0,-822.0,980.0,120644.0,6.205,-26.03,-977.76,0.285,-0.03
-823.0,981.0,120644.0,223.0,-823.0,981.0,120644.0,3.482,-26.033,-977.87,0.286,0.0
-823.0,982.0,120645.0,223.0,-823.0,982.0,120645.0,4.169,-26.068,-977.85,0.292,0.13
-822.0,983.0,120645.0,223.0,-822.0,983.0,120645.0,4.39,-26.102,-977.85,0.288,0.22
-822.0,983.0,120646.0,223.0,-822.0,983.0,120646.0,4.214,-26.127,-977.84,0.286,0.1
-822.0,984.0,120646.0,223.0,-822.0,984.0,120646.0,4.23,-26.146,-977.85,0.288,0.26
-823.0,985.0,120647.0,223.0,-823.0,985.0,120647.0,1.844,-26.133,-977.89,0.288,-0.07
-824.0,985.0,120647.0,223.0,-824.0,985.0,120647.0,-0.399,-26.2,-980.32,0.288,0.02
-825.0,986.0,120648.0,223.0,-825.0,986.0,120648.0,0.249,-26.286,-982.65,0.288,-0.03
-827.0,987.0,120648.0,223.0,-827.0,987.0,120648.0,0.581,-26.26,-982.05,0.287,-0.07
-827.0,987.0,120649.0,223.0,-827.0,987.0,120649.0,2.781,-26.174,-979.32,0.287,0.05
-828.0,988.0,120649.0,223.0,-828.0,988.0,120649.0,5.267,-23.851,-979.54,0.288,0.01
-828.0,987.0,120650.0,223.0,-828.0,987.0,120650.0,4.882,-21.653,-982.48,0.143,-0.03
-829.0,987.0,120650.0,223.0,-829.0,987.0,120650.0,4.65,-22.217,-982.2,0.193,-0.0
-828.0,985.0,120651.0,223.0,-828.0,985.0,120651.0,7.185,-22.534,-981.65,-0.016,0.13
-827.0,984.0,120651.0,223.0,-827.0,984.0,120651.0,9.459,-22.424,-981.84,0.117,0.08
-826.0,984.0,120652.0,223.0,-826.0,984.0,120652.0,8.837,-22.51,-981.79,0.204,0.15
-826.0,984.0,120652.0,223.0,-826.0,984.0,120652.0,8.435,-22.561,-981.82,0.195,0.06
-826.0,985.0,120653.0,223.0,-826.0,985.0,120653.0,6.154,-22.611,-981.84,0.415,0.05
-826.0,984.0,120653.0,223.0,-826.0,984.0,120653.0,3.704,-22.59,-981.9,0.249,0.1
-825.0,985.0,120654.0,223.0,-825.0,985.0,120654.0,4.239,-22.558,-981.89,0.306,0.23
-825.0,985.0,120654.0,223.0,-825.0,985.0,120654.0,4.509,-22.473,-981.87,0.282,0.04
-826.0,985.0,120655.0,223.0,-826.0,985.0,120655.0,4.359,-22.355,-981.88,0.264,0.01
-826.0,985.0,120655.0,223.0,-826.0,985.0,120655.0,4.343,-22.169,-979.49,0.298,0.05
-827.0,985.0,120656.0,223.0,-827.0,985.0,120656.0,4.292,-22.018,-977.15,0.299,-0.12
-827.0,985.0,120656.0,223.0,-827.0,985.0,120656.0,4.393,-22.017,-977.74,0.279,0.12
-828.0,985.0,120657.0,223.0,-828.0,985.0,120657.0,4.462,-22.045,-978.05,0.287,-0.06
-829.0,985.0,120657.0,223.0,-829.0,985.0,120657.0,4.532,-22.081,-977.88,0.287,-0.17
-829.0,985.0,120658.0,223.0,-829.0,985.0,120658.0,6.969,-22.161,-977.88,0.285,-0.06
-830.0,985.0,120658.0,223.0,-830.0,985.0,120658.0,9.323,-22.238,-977.83,0.289,-0.17
-829.0,986.0,120659.0,223.0,-829.0,986.0,120659.0,8.752,-24.627,-977.81,0.287,0.05
-829.0,986.0,120659.0,223.0,-829.0,986.0,120659.0,8.446,-26.95,-977.76,0.285,0.03
-829.0,987.0,120660.0,223.0,-829.0,987.0,120660.0,6.232,-26.368,-977.81,0.287,0.03
-829.0,987.0,120660.0,223.0,-829.0,987.0,120660.0,3.916,-23.789,-980.3,0.287,0.1
-830.0,987.0,120661.0,223.0,-830.0,987.0,120661.0,4.52,-21.745,-982.66,0.286,-0.07
-829.0,988.0,120661.0,223.0,-829.0,988.0,120661.0,4.688,-22.249,-982.06,0.287,0.2
-829.0,988.0,120662.0,223.0,-829.0,988.0,120662.0,4.418,-24.878,-981.7,0.287,0.15
-830.0,988.0,120662.0,223.0,-830.0,988.0,120662.0,2.023,-24.612,-981.92,0.286,0.09
-829.0,988.0,120663.0,223.0,-829.0,988.0,120663.0,-0.342,-21.765,-981.98,0.287,0.3
-830.0,988.0,120663.0,223.0,-830.0,988.0,120663.0,2.61,-22.052,-981.93,0.286,-0.07
-831.0,989.0,120664.0,223.0,-831.0,989.0,120664.0,5.206,-22.556,-981.85,0.286,0.0
-831.0,989.0,120664.0,223.0,-831.0,989.0,120664.0,4.38,-24.59,-979.45,0.286,-0.02
-832.0,989.0,120665.0,223.0,-832.0,989.0,120665.0,6.475,-24.53,-977.07,0.141,-0.08
-831.0,989.0,120665.0,223.0,-831.0,989.0,120665.0,6.693,-24.009,-977.66,0.336,0.19
-831.0,989.0,120666.0,223.0,-831.0,989.0,120666.0,6.259,-24.28,-977.98,0.223,0.11
-830.0,989.0,120666.0,223.0,-830.0,989.0,120666.0,8.946,-24.242,-977.76,0.224,0.11
-829.0,990.0,120667.0,223.0,-829.0,990.0,120667.0,8.852,-26.618,-977.76,0.198,0.06
-829.0,989.0,120667.0,223.0,-829.0,989.0,120667.0,8.337,-26.574,-977.76,-0.059,-0.07
-829.0,989.0,120668.0,223.0,-829.0,989.0,120668.0,6.208,-26.109,-980.22,0.12,0.14
-829.0,989.0,120668.0,223.0,-829.0,989.0,120668.0,3.829,-26.448,-982.58,0.212,0.04
-829.0,990.0,120668.0,223.0,-829.0,990.0,120668.0,4.398,-26.386,-981.98,0.334,0.16
-828.0,991.0,120668.0,223.0,-828.0,991.0,120668.0,4.708,-26.541,-984.06,0.372,0.23
-829.0,992.0,120669.0,223.0,-829.0,992.0,120669.0,4.614,-26.604,-986.57,0.31,-0.0
-828.0,992.0,120669.0,223.0,-828.0,992.0,120669.0,4.618,-26.534,-985.94,0.071,0.15
-829.0,992.0,120670.0,223.0,-829.0,992.0,120670.0,4.567,-26.432,-985.64,0.182,0.02
-829.0,991.0,120670.0,223.0,-829.0,991.0,120670.0,4.507,-26.247,-983.4,0.003,0.08
-828.0,991.0,120671.0,223.0,-828.0,991.0,120671.0,4.427,-26.115,-981.04,0.121,0.13
-828.0,991.0,120671.0,223.0,-828.0,991.0,120671.0,4.481,-26.15,-981.63,0.205,0.22
-828.0,991.0,120672.0,223.0,-828.0,991.0,120672.0,4.533,-26.224,-981.92,0.189,0.02
-828.0,993.0,120672.0,223.0,-828.0,993.0,120672.0,6.844,-26.237,-979.33,0.407,0.01
-828.0,992.0,120673.0,223.0,-828.0,992.0,120673.0,9.099,-26.236,-976.99,0.107,0.05
-828.0,993.0,120673.0,223.0,-828.0,993.0,120673.0,6.164,-26.242,-977.62,0.213,-0.11
-828.0,993.0,120674.0,223.0,-828.0,993.0,120674.0,3.564,-26.197,-978.0,0.12,0.26
-827.0,992.0,120674.0,223.0,-827.0,992.0,120674.0,4.354,-23.801,-977.85,0.186,0.16
-827.0,993.0,120674.0,223.0,-827.0,993.0,120674.0,4.653,-21.471,-977.94,0.372,0.06
-827.0,993.0,120674.0,223.0,-827.0,993.0,120674.0,4.566,-22.113,-980.31,0.281,0.16
-828.0,993.0,120674.0,223.0,-828.0,993.0,120674.0,4.632,-22.489,-982.66,0.33,-0.17
-829.0,992.0,120675.0,223.0,-829.0,992.0,120675.0,4.569,-22.283,-982.06,0.119,-0.0
-829.0,992.0,120676.0,223.0,-829.0,992.0,120676.0,4.544,-22.291,-981.75,0.158,0.13
-828.0,991.0,120676.0,223.0,-828.0,991.0,120676.0,4.539,-22.272,-981.92,0.141,0.23
-826.0,991.0,120677.0,223.0,-826.0,991.0,120677.0,4.575,-22.302,-981.88,0.222,0.39
-826.0,991.0,120677.0,223.0,-826.0,991.0,120677.0,4.594,-22.334,-981.89,0.356,0.16
-826.0,991.0,120678.0,223.0,-826.0,991.0,120678.0,4.56,-22.395,-981.87,0.27,0.03
-827.0,991.0,120678.0,223.0,-827.0,991.0,120678.0,4.494,-22.443,-981.88,0.335,0.0
-827.0,991.0,120679.0,223.0,-827.0,991.0,120679.0,6.802,-22.468,-981.84,0.262,-0.09
-827.0,992.0,120679.0,223.0,-827.0,992.0,120679.0,9.09,-24.808,-981.74,0.256,0.06
-827.0,993.0,120680.0,223.0,-827.0,993.0,120680.0,8.54,-27.049,-981.71,0.302,-0.03
-827.0,993.0,120680.0,223.0,-827.0,993.0,120680.0,8.348,-24.078,-981.77,0.293,-0.14
-827.0,993.0,120681.0,223.0,-827.0,993.0,120681.0,8.642,-21.458,-981.82,0.28,-0.08
-828.0,993.0,120681.0,223.0,-828.0,993.0,120681.0,6.319,-22.172,-981.85,0.287,-0.17
-829.0,993.0,120682.0,223.0,-829.0,993.0,120682.0,4.069,-24.76,-981.84,0.282,0.05
-829.0,994.0,120682.0,223.0,-829.0,994.0,120682.0,4.667,-26.919,-981.79,0.283,0.02
-829.0,994.0,120683.0,223.0,-829.0,994.0,120683.0,5.002,-24.048,-981.84,0.289,0.03
-830.0,994.0,120683.0,223.0,-830.0,994.0,120683.0,4.792,-21.481,-981.9,0.285,-0.03
-831.0,995.0,120684.0,223.0,-831.0,995.0,120684.0,4.717,-24.609,-981.84,0.284,-0.17
-832.0,996.0,120684.0,223.0,-832.0,996.0,120684.0,2.21,-27.135,-981.83,0.285,-0.09
-834.0,996.0,120685.0,223.0,-834.0,996.0,120685.0,-0.166,-24.047,-981.93,0.285,-0.15
-836.0,996.0,120685.0,223.0,-836.0,996.0,120685.0,0.379,-21.488,-981.97,0.285,-0.08
-836.0,996.0,120686.0,223.0,-836.0,996.0,120686.0,3.067,-22.255,-981.91,0.285,0.06
-837.0,996.0,120686.0,223.0,-837.0,996.0,120686.0,5.259,-22.544,-981.86,0.285,-0.02
-836.0,996.0,120687.0,223.0,-836.0,996.0,120687.0,4.674,-22.271,-979.49,0.285,0.18
-836.0,996.0,120687.0,223.0,-836.0,996.0,120687.0,6.671,-22.231,-977.11,0.285,0.06
-836.0,996.0,120688.0,223.0,-836.0,996.0,120688.0,6.8,-22.256,-977.7,0.285,-0.02
-836.0,996.0,120688.0,223.0,-836.0,996.0,120688.0,6.167,-22.27,-978.02,0.285,-0.01
-837.0,996.0,120689.0,223.0,-837.0,996.0,120689.0,8.719,-22.272,-977.8,0.285,-0.22
-837.0,996.0,120689.0,223.0,-837.0,996.0,120689.0,8.564,-22.279,-977.85,0.284,-0.07
-838.0,995.0,120690.0,223.0,-838.0,995.0,120690.0,8.075,-22.278,-977.84,0.139,-0.12
-837.0,994.0,120690.0,223.0,-837.0,994.0,120690.0,8.362,-22.281,-977.86,0.044,0.04
-837.0,993.0,120691.0,223.0,-837.0,993.0,120691.0,8.376,-22.295,-977.85,0.031,0.01
-836.0,992.0,120691.0,223.0,-836.0,992.0,120691.0,8.418,-22.245,-975.46,0.05,0.18
-836.0,992.0,120692.0,223.0,-836.0,992.0,120692.0,8.416,-22.309,-975.52,0.284,0.05
-835.0,992.0,120692.0,223.0,-835.0,992.0,120692.0,8.5,-22.49,-978.44,0.343,0.12
-834.0,993.0,120693.0,223.0,-834.0,993.0,120693.0,8.343,-22.443,-975.77,0.32,0.21
-833.0,993.0,120693.0,223.0,-833.0,993.0,120693.0,8.21,-24.763,-975.3,0.315,0.15
-832.0,993.0,120694.0,223.0,-832.0,993.0,120694.0,5.849,-24.722,-978.48,0.229,0.25
-831.0,994.0,120694.0,223.0,-831.0,994.0,120694.0,3.441,-24.039,-978.2,0.267,0.17
-831.0,994.0,120695.0,223.0,-831.0,994.0,120695.0,4.024,-26.559,-980.08,0.165,0.15
-831.0,994.0,120695.0,223.0,-831.0,994.0,120695.0,4.409,-24.109,-982.64,0.193,0.19
-830.0,993.0,120696.0,223.0,-830.0,993.0,120696.0,4.335,-21.337,-984.46,0.122,0.19
-830.0,992.0,120696.0,223.0,-830.0,992.0,120696.0,4.494,-22.238,-986.5,0.207,0.04
-831.0,993.0,120697.0,223.0,-831.0,993.0,120697.0,4.462,-22.44,-983.65,0.354,-0.04
-832.0,993.0,120697.0,223.0,-832.0,993.0,120697.0,4.477,-22.31,-980.99,0.269,-0.06
-833.0,993.0,120698.0,223.0,-833.0,993.0,120698.0,4.506,-22.336,-979.37,0.34,-0.04
-833.0,993.0,120698.0,223.0,-833.0,993.0,120698.0,4.546,-22.296,-977.27,0.261,0.04
-833.0,993.0,120699.0,223.0,-833.0,993.0,120699.0,4.665,-22.321,-977.72,0.249,0.01
-834.0,993.0,120699.0,223.0,-834.0,993.0,120699.0,7.116,-22.29,-978.0,0.3,-0.16
-834.0,993.0,120700.0,223.0,-834.0,993.0,120700.0,9.44,-24.609,-977.74,0.293,-0.1
-835.0,994.0,120700.0,223.0,-835.0,994.0,120700.0,8.823,-26.864,-977.77,0.279,-0.16
-835.0,995.0,120701.0,223.0,-835.0,995.0,120701.0,8.481,-26.256,-977.76,0.286,-0.07
-835.0,995.0,120701.0,223.0,-835.0,995.0,120701.0,8.611,-25.954,-977.78,0.28,-0.06
-836.0,995.0,120702.0,223.0,-836.0,995.0,120702.0,6.232,-26.194,-980.2,0.137,-0.11
-836.0,996.0,120702.0,223.0,-836.0,996.0,120702.0,3.958,-26.234,-982.58,0.192,0.02
-837.0,995.0,120703.0,223.0,-837.0,995.0,120703.0,4.461,-26.262,-981.99,0.125,-0.0
-836.0,996.0,120703.0,223.0,-836.0,996.0,120703.0,4.718,-26.283,-981.67,0.206,0.18
-835.0,997.0,120704.0,223.0,-835.0,997.0,120704.0,6.867,-26.379,-981.8,0.359,0.2
-835.0,997.0,120704.0,223.0,-835.0,997.0,120704.0,6.781,-26.422,-981.76,0.267,0.07
-835.0,998.0,120705.0,223.0,-835.0,998.0,120705.0,3.799,-24.065,-981.87,0.336,0.13
-835.0,998.0,120705.0,223.0,-835.0,998.0,120705.0,6.404,-21.776,-981.85,0.262,-0.01
-834.0,997.0,120706.0,223.0,-834.0,997.0,120706.0,9.13,-22.32,-981.8,0.105,0.09
-833.0,997.0,120706.0,223.0,-833.0,997.0,120706.0,8.332,-22.541,-981.8,0.204,0.27
-831.0,996.0,120707.0,223.0,-831.0,996.0,120707.0,8.132,-22.32,-981.81,0.134,0.31
-829.0,995.0,120707.0,223.0,-829.0,995.0,120707.0,8.335,-22.351,-981.81,0.057,0.32
-827.0,994.0,120708.0,223.0,-827.0,994.0,120708.0,8.374,-22.369,-981.81,0.121,0.31
-826.0,993.0,120709.0,223.0,-826.0,993.0,120709.0,8.379,-22.445,-981.8,0.01,0.22
-825.0,991.0,120709.0,223.0,-825.0,991.0,120709.0,6.044,-22.569,-984.24,-0.046,0.26
-825.0,991.0,120710.0,223.0,-825.0,991.0,120710.0,3.794,-22.708,-986.62,0.17,0.16
-825.0,989.0,120710.0,223.0,-825.0,989.0,120710.0,4.341,-22.757,-986.02,0.005,0.05
-826.0,989.0,120711.0,223.0,-826.0,989.0,120711.0,4.655,-22.781,-985.71,0.163,-0.1
-827.0,989.0,120711.0,223.0,-827.0,989.0,120711.0,4.546,-25.132,-985.83,0.241,-0.17
-828.0,989.0,120712.0,223.0,-828.0,989.0,120712.0,4.619,-24.949,-983.4,0.13,-0.11
-829.0,989.0,120712.0,223.0,-829.0,989.0,120712.0,4.697,-21.913,-981.13,0.251,-0.11
-830.0,988.0,120713.0,223.0,-830.0,988.0,120713.0,4.972,-22.195,-984.09,0.173,-0.06
-831.0,987.0,120713.0,223.0,-831.0,987.0,120713.0,5.081,-24.913,-984.3,0.001,-0.09
-832.0,987.0,120714.0,223.0,-832.0,987.0,120714.0,5.048,-24.454,-981.2,0.107,-0.12
-833.0,985.0,120714.0,223.0,-833.0,985.0,120714.0,5.067,-21.609,-981.58,0.03,-0.1
-833.0,984.0,120715.0,223.0,-833.0,984.0,120715.0,5.001,-21.895,-982.05,0.1,0.04
-833.0,984.0,120715.0,223.0,-833.0,984.0,120715.0,4.876,-22.454,-981.84,0.266,0.12
-832.0,983.0,120716.0,223.0,-832.0,983.0,120716.0,4.741,-22.314,-981.89,0.019,0.14
-832.0,982.0,120716.0,223.0,-832.0,982.0,120716.0,4.591,-22.437,-981.86,0.136,0.12
-833.0,980.0,120717.0,223.0,-833.0,980.0,120717.0,4.442,-22.458,-981.9,-0.138,-0.1
-834.0,979.0,120717.0,223.0,-834.0,979.0,120717.0,4.312,-22.496,-981.88,-0.02,-0.02
-834.0,978.0,120718.0,223.0,-834.0,978.0,120718.0,4.237,-22.487,-981.88,0.114,-0.04
-835.0,978.0,120718.0,223.0,-835.0,978.0,120718.0,4.24,-22.503,-981.88,0.245,0.02
-834.0,978.0,120719.0,223.0,-834.0,978.0,120719.0,4.314,-22.524,-981.88,0.255,0.16
-834.0,978.0,120719.0,223.0,-834.0,978.0,120719.0,6.799,-22.529,-981.83,0.212,0.07
-833.0,977.0,120720.0,223.0,-833.0,977.0,120720.0,9.302,-22.579,-984.18,0.117,0.13
-832.0,976.0,120720.0,223.0,-832.0,976.0,120720.0,8.78,-22.479,-984.14,0.023,0.2
-832.0,976.0,120721.0,223.0,-832.0,976.0,120721.0,8.395,-22.277,-981.22,0.255,0.01
-831.0,975.0,120721.0,223.0,-831.0,975.0,120721.0,8.549,-22.234,-981.5,0.126,0.02
-832.0,975.0,120722.0,223.0,-832.0,975.0,120722.0,8.479,-22.245,-981.97,0.267,-0.07
-832.0,975.0,120722.0,223.0,-832.0,975.0,120722.0,6.076,-22.243,-981.81,0.33,-0.07
-832.0,974.0,120723.0,223.0,-832.0,974.0,120723.0,3.743,-22.26,-981.9,0.083,0.19
-832.0,974.0,120723.0,223.0,-832.0,974.0,120723.0,4.381,-22.293,-981.86,0.254,0.1
-831.0,974.0,120724.0,223.0,-831.0,974.0,120724.0,4.735,-22.313,-981.89,0.113,0.12
-832.0,973.0,120724.0,223.0,-832.0,973.0,120724.0,4.59,-22.325,-981.88,0.17,-0.07
-833.0,973.0,120725.0,223.0,-833.0,973.0,120725.0,2.256,-22.324,-981.92,0.23,-0.03
-834.0,973.0,120725.0,223.0,-834.0,973.0,120725.0,-0.1,-22.332,-981.97,0.176,0.08
-834.0,971.0,120726.0,223.0,-834.0,971.0,120726.0,0.409,-22.279,-979.57,0.023,0.26
-833.0,970.0,120726.0,223.0,-833.0,970.0,120726.0,0.619,-22.217,-977.23,0.095,0.4
-832.0,970.0,120727.0,223.0,-832.0,970.0,120727.0,0.459,-22.255,-977.82,0.162,0.29
-832.0,969.0,120727.0,223.0,-832.0,969.0,120727.0,0.466,-22.289,-978.13,0.057,0.27
-832.0,969.0,120728.0,223.0,-832.0,969.0,120728.0,2.731,-22.328,-977.91,0.183,0.09
-832.0,967.0,120728.0,223.0,-832.0,967.0,120728.0,2.599,-22.343,-977.96,-0.016,0.17
-833.0,965.0,120729.0,223.0,-833.0,965.0,120729.0,-0.384,-22.315,-978.0,-0.078,0.14
-833.0,964.0,120729.0,223.0,-833.0,964.0,120729.0,2.355,-22.419,-980.36,0.033,0.07
-833.0,963.0,120730.0,223.0,-833.0,963.0,120730.0,3.0,-22.593,-985.06,0.061,0.25
-833.0,962.0,120730.0,223.0,-833.0,962.0,120730.0,0.043,-22.639,-986.87,-0.048,0.1
-834.0,962.0,120731.0,223.0,-834.0,962.0,120731.0,0.464,-22.624,-985.97,0.229,0.11
-834.0,961.0,120731.0,223.0,-834.0,961.0,120731.0,1.001,-22.625,-985.82,0.117,0.1
-835.0,961.0,120732.0,223.0,-835.0,961.0,120732.0,0.887,-22.608,-985.95,0.225,-0.01
-836.0,962.0,120732.0,223.0,-836.0,962.0,120732.0,0.955,-22.556,-985.92,0.414,-0.02
-837.0,962.0,120733.0,223.0,-837.0,962.0,120733.0,0.939,-22.476,-985.91,0.212,0.17
-837.0,962.0,120733.0,223.0,-837.0,962.0,120733.0,0.982,-22.377,-985.9,0.316,0.14
-836.0,961.0,120734.0,223.0,-836.0,961.0,120734.0,3.248,-22.209,-983.48,0.139,0.25
-835.0,961.0,120735.0,223.0,-835.0,961.0,120735.0,5.457,-22.064,-981.1,0.15,0.38
-834.0,960.0,120735.0,223.0,-834.0,960.0,120735.0,4.83,-22.049,-981.7,0.138,0.2
-833.0,960.0,120736.0,223.0,-833.0,960.0,120736.0,4.414,-24.436,-981.96,0.218,0.17
-834.0,961.0,120736.0,223.0,-834.0,961.0,120736.0,4.45,-26.813,-981.74,0.344,0.04
-834.0,962.0,120737.0,223.0,-834.0,962.0,120737.0,4.322,-26.349,-981.8,0.268,0.0
-834.0,963.0,120737.0,223.0,-834.0,963.0,120737.0,4.305,-26.146,-981.8,0.334,0.07
-833.0,964.0,120738.0,223.0,-833.0,964.0,120738.0,4.334,-26.367,-981.81,0.255,0.28
-832.0,964.0,120738.0,223.0,-832.0,964.0,120738.0,4.452,-26.328,-981.8,0.251,0.32
-831.0,965.0,120739.0,223.0,-831.0,965.0,120739.0,2.187,-26.287,-981.85,0.297,0.31
-831.0,966.0,120739.0,223.0,-831.0,966.0,120739.0,2.305,-26.23,-981.85,0.288,0.3
-831.0,966.0,120740.0,223.0,-831.0,966.0,120740.0,2.838,-26.214,-981.84,0.276,0.08
-832.0,967.0,120740.0,223.0,-832.0,967.0,120740.0,2.554,-26.188,-981.84,0.283,0.03
-832.0,968.0,120741.0,223.0,-832.0,968.0,120741.0,4.92,-26.199,-981.8,0.277,-0.08
-833.0,968.0,120741.0,223.0,-833.0,968.0,120741.0,4.835,-23.861,-981.84,0.279,-0.03
-834.0,968.0,120742.0,223.0,-834.0,968.0,120742.0,1.98,-21.554,-981.94,0.139,-0.01
-834.0,967.0,120742.0,223.0,-834.0,967.0,120742.0,2.361,-22.157,-981.93,0.185,0.03
-834.0,966.0,120743.0,223.0,-834.0,966.0,120743.0,2.92,-22.493,-981.91,0.12,0.13
-835.0,966.0,120743.0,223.0,-835.0,966.0,120743.0,0.459,-22.344,-981.96,0.205,0.06
-835.0,966.0,120744.0,223.0,-835.0,966.0,120744.0,0.659,-22.524,-984.35,0.211,0.28
-835.0,965.0,120744.0,223.0,-835.0,965.0,120744.0,1.235,-22.648,-986.68,0.169,0.15
-836.0,965.0,120745.0,223.0,-836.0,965.0,120745.0,0.909,-22.667,-986.09,0.174,0.07
-836.0,965.0,120745.0,223.0,-836.0,965.0,120745.0,0.834,-22.641,-985.78,0.182,0.08
-838.0,965.0,120746.0,223.0,-838.0,965.0,120746.0,0.674,-22.626,-985.95,0.322,-0.13
-838.0,965.0,120746.0,223.0,-838.0,965.0,120746.0,0.622,-22.592,-985.91,0.28,0.16
-839.0,966.0,120747.0,223.0,-839.0,966.0,120747.0,0.497,-24.799,-983.48,0.342,0.06
-840.0,966.0,120747.0,223.0,-840.0,966.0,120747.0,0.457,-24.602,-981.13,0.253,0.01
-841.0,967.0,120748.0,223.0,-841.0,967.0,120748.0,2.934,-24.055,-981.7,0.249,-0.0
-842.0,967.0,120748.0,223.0,-842.0,967.0,120748.0,5.239,-26.514,-979.52,0.293,-0.24
-842.0,968.0,120749.0,223.0,-842.0,968.0,120749.0,4.637,-26.275,-977.02,0.288,0.06
-843.0,968.0,120749.0,223.0,-843.0,968.0,120749.0,4.431,-23.438,-977.72,0.278,-0.02
-842.0,969.0,120750.0,223.0,-842.0,969.0,120750.0,4.66,-23.747,-978.01,0.282,0.19
-842.0,970.0,120750.0,223.0,-842.0,970.0,120750.0,4.621,-26.58,-977.8,0.275,0.08
-843.0,970.0,120751.0,223.0,-843.0,970.0,120751.0,4.624,-24.043,-977.88,0.278,-0.03
-844.0,970.0,120751.0,223.0,-844.0,970.0,120751.0,4.551,-21.287,-977.93,0.283,-0.03
-844.0,969.0,120752.0,223.0,-844.0,969.0,120752.0,4.469,-22.121,-977.94,0.135,-0.08
-845.0,968.0,120752.0,223.0,-845.0,968.0,120752.0,4.39,-22.395,-977.92,0.039,0.02
-844.0,967.0,120753.0,223.0,-844.0,967.0,120753.0,4.354,-22.268,-977.92,0.026,0.16
-844.0,966.0,120753.0,223.0,-844.0,966.0,120753.0,4.442,-22.405,-980.32,0.045,0.06
-845.0,966.0,120754.0,223.0,-845.0,966.0,120754.0,4.536,-22.551,-982.65,0.279,-0.0
-845.0,966.0,120754.0,223.0,-845.0,966.0,120754.0,4.526,-22.611,-982.06,0.339,-0.02
-847.0,967.0,120755.0,223.0,-847.0,967.0,120755.0,4.518,-22.619,-981.75,0.315,-0.23
-847.0,967.0,120755.0,223.0,-847.0,967.0,120755.0,6.906,-22.636,-981.88,0.31,0.08
-846.0,967.0,120756.0,223.0,-846.0,967.0,120756.0,9.258,-22.574,-981.79,0.225,0.1
-845.0,967.0,120756.0,223.0,-845.0,967.0,120756.0,8.722,-22.438,-981.81,0.262,0.14
-844.0,967.0,120757.0,223.0,-844.0,967.0,120757.0,8.453,-22.312,-981.8,0.305,0.14
-844.0,968.0,120757.0,223.0,-844.0,968.0,120757.0,8.603,-24.571,-981.76,0.284,-0.11
-844.0,968.0,120758.0,223.0,-844.0,968.0,120758.0,8.499,-26.825,-981.71,0.276,-0.03
-844.0,969.0,120758.0,223.0,-844.0,969.0,120758.0,6.08,-26.231,-981.77,0.278,-0.03
-844.0,970.0,120759.0,223.0,-844.0,970.0,120759.0,3.71,-25.947,-981.82,0.274,0.15
-844.0,971.0,120760.0,223.0,-844.0,971.0,120760.0,4.639,-26.199,-981.8,0.283,-0.0
-845.0,971.0,120760.0,223.0,-845.0,971.0,120760.0,4.482,-26.264,-981.8,0.133,-0.04
-846.0,971.0,120761.0,223.0,-846.0,971.0,120761.0,4.532,-26.29,-981.8,0.183,-0.09
-846.0,971.0,120761.0,223.0,-846.0,971.0,120761.0,4.524,-26.338,-981.8,0.121,0.16
-845.0,972.0,120762.0,223.0,-845.0,972.0,120762.0,4.559,-26.367,-981.8,0.203,0.12
-845.0,973.0,120762.0,223.0,-845.0,973.0,120762.0,4.488,-26.308,-979.41,0.355,0.13
-845.0,973.0,120763.0,223.0,-845.0,973.0,120763.0,4.418,-26.25,-977.08,0.263,0.05
-845.0,974.0,120763.0,223.0,-845.0,974.0,120763.0,4.338,-26.181,-975.28,0.331,0.05
-845.0,975.0,120764.0,223.0,-845.0,975.0,120764.0,4.307,-26.155,-975.64,0.257,0.09
-845.0,975.0,120764.0,223.0,-845.0,975.0,120764.0,4.286,-26.101,-976.0,0.101,0.24
-844.0,975.0,120765.0,223.0,-844.0,975.0,120765.0,4.182,-25.934,-973.43,0.2,0.17
-844.0,975.0,120765.0,223.0,-844.0,975.0,120765.0,4.175,-25.888,-973.53,0.13,0.09
-844.0,975.0,120766.0,223.0,-844.0,975.0,120766.0,4.274,-23.641,-976.51,0.198,0.06
-845.0,975.0,120766.0,223.0,-845.0,975.0,120766.0,4.348,-21.458,-978.65,0.356,-0.0
-845.0,975.0,120767.0,223.0,-845.0,975.0,120767.0,4.337,-22.071,-978.13,0.259,0.12
-845.0,975.0,120767.0,223.0,-845.0,975.0,120767.0,4.359,-22.403,-977.77,0.329,0.12
-844.0,975.0,120768.0,223.0,-844.0,975.0,120768.0,4.42,-22.255,-977.98,0.261,0.21
-843.0,975.0,120768.0,223.0,-843.0,975.0,120768.0,4.468,-22.274,-977.92,0.1,0.17
-843.0,974.0,120769.0,223.0,-843.0,974.0,120769.0,4.493,-22.225,-977.93,0.198,0.09
-844.0,974.0,120769.0,223.0,-844.0,974.0,120769.0,4.393,-24.47,-975.48,0.13,0.06
-845.0,974.0,120770.0,223.0,-845.0,974.0,120770.0,4.275,-26.663,-973.11,0.197,-0.13
-845.0,975.0,120770.0,223.0,-845.0,975.0,120770.0,4.274,-26.137,-973.71,0.356,0.03
-846.0,976.0,120771.0,223.0,-846.0,976.0,120771.0,4.289,-25.892,-974.02,0.259,-0.03
-845.0,977.0,120771.0,223.0,-845.0,977.0,120771.0,4.321,-26.079,-973.85,0.329,0.13
-844.0,977.0,120772.0,223.0,-844.0,977.0,120772.0,6.752,-26.059,-973.85,0.115,0.24
-843.0,977.0,120772.0,223.0,-843.0,977.0,120772.0,6.817,-26.124,-976.23,0.15,0.22
-843.0,976.0,120773.0,223.0,-843.0,976.0,120773.0,3.985,-26.127,-978.64,-0.011,0.2
-842.0,976.0,120773.0,223.0,-842.0,976.0,120773.0,4.187,-26.106,-978.03,0.118,0.13
-843.0,976.0,120774.0,223.0,-843.0,976.0,120774.0,4.554,-26.119,-977.71,0.19,0.02
-843.0,975.0,120774.0,223.0,-843.0,975.0,120774.0,4.265,-23.829,-977.94,0.043,-0.03
-844.0,975.0,120775.0,223.0,-844.0,975.0,120775.0,4.275,-21.601,-977.94,0.308,-0.05
-845.0,974.0,120775.0,223.0,-845.0,974.0,120775.0,4.331,-22.308,-980.32,0.079,-0.04
-844.0,974.0,120776.0,223.0,-844.0,974.0,120776.0,4.431,-22.615,-980.25,0.225,0.18
-844.0,975.0,120776.0,223.0,-844.0,975.0,120776.0,4.429,-22.315,-977.34,0.348,0.09
-844.0,975.0,120777.0,223.0,-844.0,975.0,120777.0,4.539,-22.313,-977.62,0.237,0.12
-845.0,975.0,120777.0,223.0,-845.0,975.0,120777.0,4.618,-22.248,-978.09,0.342,-0.07
-846.0,975.0,120778.0,223.0,-846.0,975.0,120778.0,4.604,-22.176,-977.88,0.268,-0.17
-847.0,975.0,120778.0,223.0,-847.0,975.0,120778.0,4.65,-22.175,-980.32,0.236,-0.0
-847.0,975.0,120779.0,223.0,-847.0,975.0,120779.0,4.695,-22.207,-982.63,0.295,-0.03
-846.0,975.0,120779.0,223.0,-846.0,975.0,120779.0,4.589,-22.083,-979.68,0.288,0.23
-846.0,975.0,120780.0,223.0,-846.0,975.0,120780.0,4.584,-22.086,-979.41,0.27,0.21
-846.0,975.0,120780.0,223.0,-846.0,975.0,120780.0,4.672,-22.242,-982.51,0.282,0.04
-845.0,975.0,120781.0,223.0,-845.0,975.0,120781.0,2.314,-22.351,-984.62,0.275,0.27
-846.0,974.0,120782.0,223.0,-846.0,974.0,120782.0,-0.107,-22.365,-984.14,0.129,0.07
-847.0,974.0,120782.0,223.0,-847.0,974.0,120782.0,0.288,-24.667,-981.35,0.187,0.1
-847.0,975.0,120783.0,223.0,-847.0,975.0,120783.0,2.665,-26.519,-982.02,0.2,-0.06
-848.0,976.0,120784.0,223.0,-848.0,976.0,120784.0,-0.192,-26.225,-981.83,0.354,0.03
-849.0,976.0,120784.0,223.0,-849.0,976.0,120784.0,0.127,-26.428,-981.9,0.261,0.09
-850.0,977.0,120785.0,223.0,-850.0,977.0,120785.0,3.07,-26.412,-981.81,0.33,-0.14
-850.0,978.0,120785.0,223.0,-850.0,978.0,120785.0,5.263,-26.405,-981.8,0.256,0.11
-850.0,979.0,120786.0,223.0,-850.0,979.0,120786.0,4.83,-26.313,-981.8,0.244,-0.06
-852.0,978.0,120786.0,223.0,-852.0,978.0,120786.0,4.594,-23.901,-981.85,0.148,-0.18
-852.0,977.0,120786.0,223.0,-852.0,977.0,120786.0,4.854,-21.546,-981.9,0.047,-0.05
-853.0,976.0,120787.0,223.0,-853.0,976.0,120787.0,4.801,-24.443,-981.84,0.019,-0.17
-854.0,976.0,120787.0,223.0,-854.0,976.0,120787.0,4.723,-26.982,-979.4,0.045,-0.09
-854.0,976.0,120788.0,223.0,-854.0,976.0,120788.0,4.712,-26.315,-979.46,0.129,0.07
-854.0,976.0,120788.0,223.0,-854.0,976.0,120788.0,4.813,-23.922,-982.44,0.24,0.1
-854.0,974.0,120789.0,223.0,-854.0,974.0,120789.0,2.394,-21.849,-982.25,0.013,0.12
-854.0,974.0,120790.0,223.0,-854.0,974.0,120790.0,-0.031,-22.414,-981.8,0.137,0.26
-854.0,973.0,120790.0,223.0,-854.0,973.0,120790.0,0.369,-22.633,-979.61,0.138,0.12
-855.0,972.0,120791.0,223.0,-855.0,972.0,120791.0,2.851,-19.999,-977.22,0.168,0.08
-854.0,972.0,120791.0,223.0,-854.0,972.0,120791.0,4.916,-17.745,-977.84,0.431,0.08
-856.0,972.0,120792.0,223.0,-856.0,972.0,120792.0,4.383,-18.321,-980.5,0.243,-0.14
-856.0,971.0,120792.0,223.0,-856.0,971.0,120792.0,4.129,-18.625,-982.69,0.294,0.03
-856.0,971.0,120793.0,223.0,-856.0,971.0,120793.0,4.364,-18.334,-982.14,0.27,0.1
-856.0,970.0,120793.0,223.0,-856.0,970.0,120793.0,4.405,-20.626,-981.77,0.248,0.08
-855.0,970.0,120794.0,223.0,-855.0,970.0,120794.0,4.55,-22.867,-981.92,0.29,0.16
-856.0,971.0,120794.0,223.0,-856.0,971.0,120794.0,4.726,-22.379,-984.26,0.292,-0.08
-857.0,971.0,120795.0,223.0,-857.0,971.0,120795.0,4.871,-22.183,-986.61,0.267,-0.18
-858.0,971.0,120795.0,223.0,-858.0,971.0,120795.0,4.779,-22.303,-983.62,0.276,-0.14
-859.0,971.0,120796.0,223.0,-859.0,971.0,120796.0,2.3,-24.559,-980.98,0.277,0.0
-860.0,972.0,120796.0,223.0,-860.0,972.0,120796.0,2.381,-26.953,-981.69,0.274,0.03
-860.0,973.0,120797.0,223.0,-860.0,973.0,120797.0,2.943,-26.426,-981.96,0.424,0.07
-861.0,974.0,120797.0,223.0,-861.0,974.0,120797.0,2.711,-26.166,-981.81,0.227,-0.05
-862.0,974.0,120798.0,223.0,-862.0,974.0,120798.0,2.748,-23.996,-981.88,0.338,-0.04
-863.0,974.0,120798.0,223.0,-863.0,974.0,120798.0,0.31,-21.622,-981.97,0.194,0.0
-864.0,973.0,120799.0,223.0,-864.0,973.0,120799.0,0.3,-22.193,-981.98,0.125,-0.0
-864.0,974.0,120799.0,223.0,-864.0,974.0,120799.0,0.794,-22.465,-981.94,0.368,0.13
-865.0,973.0,120800.0,223.0,-865.0,973.0,120800.0,0.51,-22.316,-981.96,0.208,-0.05
-865.0,974.0,120800.0,223.0,-865.0,974.0,120800.0,2.954,-22.402,-981.91,0.35,0.18
-866.0,974.0,120801.0,223.0,-866.0,974.0,120801.0,2.846,-22.409,-981.91,0.288,-0.0
-867.0,974.0,120801.0,223.0,-867.0,974.0,120801.0,-0.042,-22.41,-981.96,0.227,0.0
-868.0,974.0,120802.0,223.0,-868.0,974.0,120802.0,0.228,-22.386,-981.96,0.283,0.01
-870.0,974.0,120802.0,223.0,-870.0,974.0,120802.0,0.704,-22.371,-981.95,0.291,-0.24
-872.0,975.0,120803.0,223.0,-872.0,975.0,120803.0,2.938,-24.702,-981.86,0.281,-0.12
-873.0,975.0,120804.0,223.0,-873.0,975.0,120804.0,0.081,-24.614,-981.92,0.275,0.03
-874.0,974.0,120804.0,223.0,-874.0,974.0,120804.0,0.49,-21.743,-981.97,0.125,0.01
-875.0,974.0,120805.0,223.0,-875.0,974.0,120805.0,0.997,-22.028,-981.96,0.185,0.03
-875.0,973.0,120805.0,223.0,-875.0,973.0,120805.0,3.158,-22.532,-981.91,0.119,0.09
-875.0,973.0,120806.0,223.0,-875.0,973.0,120806.0,5.493,-22.377,-981.87,0.198,-0.08
-875.0,973.0,120806.0,223.0,-875.0,973.0,120806.0,4.712,-22.383,-979.49,0.352,0.06
-876.0,973.0,120807.0,223.0,-876.0,973.0,120807.0,4.272,-22.311,-977.16,0.259,-0.08
-877.0,973.0,120807.0,223.0,-877.0,973.0,120807.0,4.453,-22.47,-980.13,0.328,-0.15
-878.0,973.0,120808.0,223.0,-878.0,973.0,120808.0,4.463,-22.527,-982.78,0.255,-0.06
-878.0,973.0,120808.0,223.0,-878.0,973.0,120808.0,4.47,-22.443,-982.02,0.242,-0.03
-879.0,973.0,120809.0,223.0,-879.0,973.0,120809.0,4.492,-22.371,-981.75,0.291,-0.0
-878.0,974.0,120809.0,223.0,-878.0,974.0,120809.0,4.58,-22.313,-981.91,0.285,0.22
-878.0,974.0,120810.0,223.0,-878.0,974.0,120810.0,4.629,-22.278,-981.89,0.27,0.04
-878.0,974.0,120810.0,223.0,-878.0,974.0,120810.0,4.633,-22.269,-981.88,0.278,0.1
-878.0,974.0,120811.0,223.0,-878.0,974.0,120811.0,4.597,-22.278,-981.87,0.272,0.08
-878.0,974.0,120811.0,223.0,-878.0,974.0,120811.0,6.902,-22.325,-981.84,0.273,-0.08
-878.0,974.0,120812.0,223.0,-878.0,974.0,120812.0,9.156,-22.378,-981.79,0.279,0.0
-878.0,974.0,120812.0,223.0,-878.0,974.0,120812.0,8.454,-22.317,-979.41,0.275,-0.19
-878.0,974.0,120813.0,223.0,-878.0,974.0,120813.0,8.08,-22.255,-977.08,0.274,-0.09
-878.0,974.0,120813.0,223.0,-878.0,974.0,120813.0,8.326,-22.295,-977.67,0.276,0.0
-877.0,974.0,120814.0,223.0,-877.0,974.0,120814.0,6.088,-22.379,-980.41,0.275,0.13
-877.0,974.0,120814.0,223.0,-877.0,974.0,120814.0,3.939,-22.437,-982.62,0.275,0.15
-877.0,974.0,120814.0,223.0,-877.0,974.0,120814.0,4.537,-22.417,-982.06,0.275,0.11
-878.0,974.0,120815.0,223.0,-878.0,974.0,120815.0,4.829,-22.401,-981.74,0.275,-0.11
-879.0,974.0,120815.0,223.0,-879.0,974.0,120815.0,4.593,-22.398,-981.93,0.275,-0.16
-880.0,975.0,120815.0,223.0,-880.0,975.0,120815.0,4.534,-24.735,-981.83,0.275,-0.14
-881.0,975.0,120816.0,223.0,-881.0,975.0,120816.0,4.469,-27.022,-981.79,0.275,-0.13
-882.0,976.0,120816.0,223.0,-882.0,976.0,120816.0,2.129,-26.418,-981.84,0.275,-0.05
-883.0,977.0,120817.0,223.0,-883.0,977.0,120817.0,-0.142,-26.095,-981.9,0.275,-0.09
-885.0,977.0,120817.0,223.0,-885.0,977.0,120817.0,0.522,-26.268,-981.88,0.275,-0.13
-886.0,978.0,120818.0,223.0,-886.0,978.0,120818.0,0.969,-26.317,-984.26,0.275,-0.11
-887.0,979.0,120818.0,223.0,-887.0,979.0,120818.0,0.823,-26.326,-984.21,0.275,0.03
-888.0,979.0,120819.0,223.0,-888.0,979.0,120819.0,0.768,-26.204,-981.29,0.275,-0.01
-888.0,980.0,120819.0,223.0,-888.0,980.0,120819.0,0.813,-26.317,-983.96,0.275,0.19
-889.0,981.0,120820.0,223.0,-889.0,981.0,120820.0,0.859,-26.417,-986.77,0.275,0.05
-889.0,981.0,120820.0,223.0,-889.0,981.0,120820.0,0.649,-26.297,-983.58,0.275,0.11
-889.0,982.0,120821.0,223.0,-889.0,982.0,120821.0,0.464,-26.207,-980.99,0.275,0.07
-890.0,983.0,120821.0,223.0,-890.0,983.0,120821.0,0.4,-26.231,-981.72,0.275,0.06
-890.0,983.0,120822.0,223.0,-890.0,983.0,120822.0,2.722,-26.263,-981.97,0.275,0.23
-889.0,984.0,120822.0,223.0,-889.0,984.0,120822.0,4.944,-26.191,-979.36,0.275,0.18
-888.0,985.0,120823.0,223.0,-888.0,985.0,120823.0,4.301,-26.101,-977.06,0.275,0.23
-888.0,985.0,120823.0,223.0,-888.0,985.0,120823.0,4.063,-23.774,-977.72,0.274,0.15
-888.0,985.0,120824.0,223.0,-888.0,985.0,120824.0,4.289,-21.495,-978.08,0.274,0.01
-887.0,985.0,120824.0,223.0,-887.0,985.0,120824.0,6.643,-22.089,-977.83,0.274,0.09
-887.0,985.0,120825.0,223.0,-887.0,985.0,120825.0,8.939,-22.327,-975.44,0.274,0.03
-886.0,985.0,120825.0,223.0,-886.0,985.0,120825.0,8.4,-22.157,-975.51,0.274,0.1
-885.0,985.0,120826.0,223.0,-885.0,985.0,120826.0,5.906,-22.282,-978.49,0.274,0.11
-886.0,985.0,120826.0,223.0,-886.0,985.0,120826.0,3.81,-22.242,-978.24,0.274,-0.07
-887.0,985.0,120827.0,223.0,-887.0,985.0,120827.0,4.38,-22.247,-977.76,0.274,-0.01
-888.0,985.0,120827.0,223.0,-888.0,985.0,120827.0,4.811,-22.331,-980.36,0.274,-0.2
-889.0,985.0,120828.0,223.0,-889.0,985.0,120828.0,4.714,-22.415,-982.64,0.274,-0.08
-889.0,985.0,120828.0,223.0,-889.0,985.0,120828.0,4.773,-22.399,-982.08,0.274,0.0
-888.0,985.0,120829.0,223.0,-888.0,985.0,120829.0,4.773,-22.383,-981.74,0.274,0.13
-888.0,984.0,120829.0,223.0,-888.0,984.0,120829.0,4.805,-22.391,-981.92,0.129,0.15
-887.0,984.0,120830.0,223.0,-887.0,984.0,120830.0,4.766,-22.391,-981.88,0.179,0.11
-887.0,983.0,120830.0,223.0,-887.0,983.0,120830.0,7.065,-22.423,-981.84,0.115,0.02
-887.0,983.0,120831.0,223.0,-887.0,983.0,120831.0,9.276,-22.469,-981.78,0.198,-0.06
-887.0,983.0,120831.0,223.0,-887.0,983.0,120831.0,8.577,-22.502,-981.81,0.349,0.01
-887.0,983.0,120832.0,223.0,-887.0,983.0,120832.0,8.19,-24.881,-981.76,0.257,-0.06
-887.0,985.0,120832.0,223.0,-887.0,985.0,120832.0,5.963,-27.166,-981.76,0.326,-0.12
-887.0,985.0,120833.0,223.0,-887.0,985.0,120833.0,3.647,-26.542,-981.81,0.252,0.06
-888.0,986.0,120833.0,223.0,-888.0,986.0,120833.0,4.246,-26.104,-979.42,0.24,-0.09
-888.0,986.0,120834.0,223.0,-888.0,986.0,120834.0,4.623,-26.207,-979.46,0.29,0.06
-889.0,987.0,120834.0,223.0,-889.0,987.0,120834.0,4.635,-26.212,-982.39,0.283,0.0
-890.0,987.0,120835.0,223.0,-890.0,987.0,120835.0,4.714,-23.833,-982.16,0.268,-0.19
-890.0,987.0,120835.0,223.0,-890.0,987.0,120835.0,2.385,-23.908,-984.11,0.276,0.04
-891.0,988.0,120836.0,223.0,-891.0,988.0,120836.0,0.063,-24.443,-984.31,0.27,-0.06
-892.0,988.0,120836.0,223.0,-892.0,988.0,120836.0,2.895,-21.815,-981.32,0.272,0.06
-891.0,988.0,120837.0,223.0,-891.0,988.0,120837.0,5.504,-21.989,-981.58,0.277,0.14
-891.0,988.0,120837.0,223.0,-891.0,988.0,120837.0,4.732,-22.543,-982.03,0.273,0.03
-890.0,988.0,120838.0,223.0,-890.0,988.0,120838.0,4.416,-22.338,-981.84,0.272,0.28
-890.0,988.0,120838.0,223.0,-890.0,988.0,120838.0,4.521,-22.429,-981.89,0.274,0.16
-889.0,988.0,120839.0,223.0,-889.0,988.0,120839.0,4.353,-22.308,-979.47,0.273,0.2
-888.0,988.0,120839.0,223.0,-888.0,988.0,120839.0,4.197,-24.604,-977.12,0.273,0.17
-889.0,988.0,120840.0,223.0,-889.0,988.0,120840.0,4.151,-24.554,-977.7,0.274,0.01
-888.0,988.0,120840.0,223.0,-888.0,988.0,120840.0,4.253,-21.768,-980.45,0.273,0.23
-888.0,989.0,120841.0,223.0,-888.0,989.0,120841.0,4.322,-24.47,-982.57,0.273,-0.0
-888.0,990.0,120841.0,223.0,-888.0,990.0,120841.0,4.344,-27.199,-981.96,0.273,0.02
-888.0,990.0,120842.0,223.0,-888.0,990.0,120842.0,4.428,-26.395,-981.66,0.273,0.08
-888.0,991.0,120842.0,223.0,-888.0,991.0,120842.0,4.533,-26.152,-981.86,0.273,0.0
-888.0,991.0,120843.0,223.0,-888.0,991.0,120843.0,2.332,-26.352,-984.23,0.273,0.19
-888.0,992.0,120843.0,223.0,-888.0,992.0,120843.0,2.552,-24.082,-986.62,0.273,0.09
-888.0,992.0,120844.0,223.0,-888.0,992.0,120844.0,5.394,-24.049,-983.58,0.273,0.03
-889.0,993.0,120844.0,223.0,-889.0,993.0,120844.0,5.0,-26.805,-980.89,0.273,-0.04
-889.0,993.0,120845.0,223.0,-889.0,993.0,120845.0,4.511,-26.575,-981.66,0.273,-0.0
-890.0,994.0,120845.0,223.0,-890.0,994.0,120845.0,4.688,-26.112,-981.93,0.273,-0.07
-890.0,995.0,120846.0,223.0,-890.0,995.0,120846.0,4.599,-26.314,-981.77,0.273,0.02
-889.0,995.0,120846.0,223.0,-889.0,995.0,120846.0,4.636,-23.921,-981.84,0.273,0.15
-889.0,995.0,120847.0,223.0,-889.0,995.0,120847.0,4.625,-21.653,-981.89,0.273,0.06
-889.0,995.0,120847.0,223.0,-889.0,995.0,120847.0,4.64,-22.2,-981.9,0.273,0.13
-890.0,995.0,120848.0,223.0,-890.0,995.0,120848.0,4.617,-22.518,-981.87,0.273,-0.07
-891.0,994.0,120848.0,223.0,-891.0,994.0,120848.0,4.648,-22.438,-984.27,0.128,-0.18
-891.0,993.0,120849.0,223.0,-891.0,993.0,120849.0,4.613,-22.474,-984.22,0.178,-0.0
-891.0,992.0,120849.0,223.0,-891.0,992.0,120849.0,4.521,-20.027,-981.34,0.114,0.09
-890.0,991.0,120850.0,223.0,-890.0,991.0,120850.0,4.573,-17.786,-981.66,0.197,0.18
-889.0,991.0,120851.0,223.0,-889.0,991.0,120851.0,4.534,-20.663,-979.69,0.348,0.28
-889.0,991.0,120851.0,223.0,-889.0,991.0,120851.0,4.449,-23.205,-977.09,0.256,-0.03
-890.0,991.0,120852.0,223.0,-890.0,991.0,120852.0,4.441,-22.501,-977.75,0.325,-0.02
-890.0,991.0,120852.0,223.0,-890.0,991.0,120852.0,4.391,-22.226,-978.04,0.251,0.07
-891.0,990.0,120853.0,223.0,-891.0,990.0,120853.0,4.336,-22.323,-977.9,0.094,-0.11
-890.0,990.0,120853.0,223.0,-890.0,990.0,120853.0,4.328,-22.233,-977.92,0.193,0.11
-891.0,990.0,120854.0,223.0,-891.0,990.0,120854.0,4.346,-24.526,-977.87,0.123,-0.07
-892.0,990.0,120854.0,223.0,-892.0,990.0,120854.0,6.764,-26.819,-977.8,0.191,-0.18
-892.0,991.0,120855.0,223.0,-892.0,991.0,120855.0,9.149,-26.309,-977.75,0.35,-0.06
-892.0,992.0,120855.0,223.0,-892.0,992.0,120855.0,8.706,-26.13,-980.16,0.253,-0.03
-892.0,992.0,120856.0,223.0,-892.0,992.0,120856.0,6.16,-26.393,-982.55,0.323,-0.0
-892.0,993.0,120856.0,223.0,-892.0,993.0,120856.0,4.026,-26.32,-981.99,0.254,0.08
-892.0,993.0,120857.0,223.0,-892.0,993.0,120857.0,4.56,-26.297,-981.68,0.239,-0.05
-893.0,993.0,120857.0,223.0,-893.0,993.0,120857.0,4.84,-26.246,-981.84,0.142,-0.19
-894.0,994.0,120857.0,223.0,-894.0,994.0,120857.0,4.583,-26.218,-981.8,0.187,-0.08
-895.0,993.0,120858.0,223.0,-895.0,993.0,120858.0,4.577,-26.201,-981.81,0.108,-0.16
-896.0,994.0,120858.0,223.0,-896.0,994.0,120858.0,2.156,-26.191,-981.84,0.198,-0.08
-898.0,995.0,120859.0,223.0,-898.0,995.0,120859.0,-0.148,-26.218,-981.9,0.345,-0.07
-898.0,995.0,120859.0,223.0,-898.0,995.0,120859.0,2.827,-26.298,-981.84,0.253,0.01
-898.0,996.0,120860.0,223.0,-898.0,996.0,120860.0,5.415,-23.926,-979.44,0.328,-0.02
-898.0,995.0,120860.0,223.0,-898.0,995.0,120860.0,4.611,-21.542,-977.17,0.25,0.05
-899.0,994.0,120861.0,223.0,-899.0,994.0,120861.0,1.972,-22.082,-977.79,0.092,-0.03
-900.0,994.0,120861.0,223.0,-900.0,994.0,120861.0,-0.141,-22.41,-980.53,0.193,-0.03
-901.0,993.0,120862.0,223.0,-901.0,993.0,120862.0,2.817,-22.31,-982.64,0.123,0.0
-900.0,993.0,120862.0,223.0,-900.0,993.0,120862.0,5.38,-22.351,-982.04,0.19,0.13
-900.0,993.0,120863.0,223.0,-900.0,993.0,120863.0,4.5,-22.263,-979.35,0.35,0.21
-899.0,993.0,120864.0,223.0,-899.0,993.0,120864.0,4.253,-22.33,-979.6,0.252,0.09
-899.0,993.0,120864.0,223.0,-899.0,993.0,120864.0,2.11,-22.431,-982.51,0.322,0.25
-900.0,993.0,120865.0,223.0,-900.0,993.0,120865.0,2.099,-22.427,-982.24,0.254,-0.07
-900.0,992.0,120865.0,223.0,-900.0,992.0,120865.0,4.96,-22.411,-981.69,0.093,0.01
-901.0,992.0,120866.0,223.0,-901.0,992.0,120866.0,2.286,-22.347,-981.97,0.191,-0.04
-903.0,991.0,120866.0,223.0,-903.0,991.0,120866.0,-0.461,-22.29,-981.96,0.123,-0.22
-904.0,991.0,120867.0,223.0,-904.0,991.0,120867.0,0.409,-22.298,-981.97,0.19,-0.04
-906.0,991.0,120867.0,223.0,-906.0,991.0,120867.0,0.769,-22.331,-981.94,0.349,-0.14
-907.0,991.0,120868.0,223.0,-907.0,991.0,120868.0,0.758,-22.375,-981.96,0.252,-0.11
-908.0,991.0,120868.0,223.0,-908.0,991.0,120868.0,3.25,-22.43,-981.91,0.321,-0.07
-909.0,991.0,120869.0,223.0,-909.0,991.0,120869.0,3.268,-22.429,-981.91,0.253,-0.12
-910.0,991.0,120869.0,223.0,-910.0,991.0,120869.0,0.395,-22.372,-981.97,0.238,-0.12
-911.0,991.0,120870.0,223.0,-911.0,991.0,120870.0,2.901,-24.608,-979.48,0.286,-0.09
-912.0,992.0,120870.0,223.0,-912.0,992.0,120870.0,5.545,-26.798,-977.04,0.281,-0.11
-912.0,992.0,120871.0,223.0,-912.0,992.0,120871.0,4.705,-23.862,-977.71,0.266,0.03
-912.0,992.0,120871.0,223.0,-912.0,992.0,120871.0,4.394,-21.27,-978.07,0.273,0.12
-911.0,992.0,120872.0,223.0,-911.0,992.0,120872.0,4.45,-22.019,-977.88,0.268,0.27
-909.0,992.0,120872.0,223.0,-909.0,992.0,120872.0,4.359,-22.297,-977.92,0.269,0.35
-909.0,992.0,120872.0,223.0,-909.0,992.0,120872.0,4.244,-24.51,-977.87,0.274,0.13
-908.0,993.0,120872.0,223.0,-908.0,993.0,120872.0,4.105,-26.854,-977.84,0.271,0.2
-908.0,994.0,120873.0,223.0,-908.0,994.0,120873.0,4.03,-26.301,-977.84,0.269,-0.05
-909.0,994.0,120873.0,223.0,-909.0,994.0,120873.0,4.049,-26.116,-980.24,0.271,-0.04
-909.0,995.0,120874.0,223.0,-909.0,995.0,120874.0,4.147,-26.357,-982.57,0.27,0.12
-909.0,996.0,120874.0,223.0,-909.0,996.0,120874.0,4.227,-28.645,-981.93,0.271,-0.1
-909.0,997.0,120875.0,223.0,-909.0,997.0,120875.0,4.288,-30.848,-979.19,0.271,0.08
-909.0,998.0,120875.0,223.0,-909.0,998.0,120875.0,4.396,-30.163,-977.04,0.27,0.06
-910.0,1000.0,120875.0,223.0,-910.0,1000.0,120875.0,4.641,-29.978,-979.98,0.27,-0.09
-910.0,1001.0,120876.0,223.0,-910.0,1001.0,120876.0,4.818,-30.232,-982.63,0.271,0.09
-910.0,1002.0,120876.0,223.0,-910.0,1002.0,120876.0,4.82,-30.152,-981.85,0.271,-0.09
-911.0,1003.0,120877.0,223.0,-911.0,1003.0,120877.0,4.789,-30.154,-981.6,0.271,-0.17
-911.0,1005.0,120877.0,223.0,-911.0,1005.0,120877.0,4.745,-30.14,-981.76,0.271,0.08
-912.0,1006.0,120878.0,223.0,-912.0,1006.0,120878.0,4.61,-30.067,-979.34,0.271,-0.08
-911.0,1007.0,120878.0,223.0,-911.0,1007.0,120878.0,4.487,-29.981,-977.01,0.271,0.19
-910.0,1008.0,120879.0,223.0,-910.0,1008.0,120879.0,4.464,-30.0,-977.58,0.271,0.23
-909.0,1009.0,120879.0,223.0,-909.0,1009.0,120879.0,4.514,-27.758,-980.34,0.271,0.18
-909.0,1009.0,120880.0,223.0,-909.0,1009.0,120880.0,4.525,-25.544,-982.54,0.271,0.21
-908.0,1010.0,120880.0,223.0,-908.0,1010.0,120880.0,4.331,-26.017,-979.6,0.27,0.14
-908.0,1010.0,120881.0,223.0,-908.0,1010.0,120881.0,4.163,-23.877,-976.99,0.27,0.01
-909.0,1010.0,120881.0,223.0,-909.0,1010.0,120881.0,4.142,-21.446,-977.81,0.27,-0.02
-909.0,1010.0,120882.0,223.0,-909.0,1010.0,120882.0,4.142,-22.076,-978.05,0.27,-0.06
-911.0,1010.0,120882.0,223.0,-911.0,1010.0,120882.0,4.198,-22.362,-977.89,0.27,-0.19
-912.0,1010.0,120883.0,223.0,-912.0,1010.0,120883.0,1.949,-22.191,-977.96,0.27,-0.05
-912.0,1009.0,120883.0,223.0,-912.0,1009.0,120883.0,2.161,-22.221,-977.96,0.125,-0.01
-912.0,1008.0,120884.0,223.0,-912.0,1008.0,120884.0,5.224,-22.243,-977.92,0.175,0.12
-910.0,1007.0,120885.0,223.0,-910.0,1007.0,120885.0,5.055,-22.271,-977.91,0.111,0.3
-910.0,1007.0,120885.0,223.0,-910.0,1007.0,120885.0,4.613,-22.274,-977.93,0.194,0.19
-909.0,1008.0,120886.0,223.0,-909.0,1008.0,120886.0,4.744,-24.664,-977.88,0.346,0.17
-909.0,1008.0,120886.0,223.0,-909.0,1008.0,120886.0,4.539,-24.651,-977.88,0.254,0.0
-910.0,1008.0,120887.0,223.0,-910.0,1008.0,120887.0,2.026,-21.768,-977.98,0.322,-0.06
-910.0,1008.0,120887.0,223.0,-910.0,1008.0,120887.0,1.896,-22.023,-977.97,0.248,0.09
-911.0,1008.0,120888.0,223.0,-911.0,1008.0,120888.0,4.748,-22.463,-977.91,0.237,-0.08
-910.0,1008.0,120888.0,223.0,-910.0,1008.0,120888.0,4.494,-22.182,-977.92,0.286,0.23
-910.0,1007.0,120889.0,223.0,-910.0,1007.0,120889.0,4.101,-22.174,-977.93,0.279,0.01
-911.0,1007.0,120889.0,223.0,-911.0,1007.0,120889.0,4.428,-22.115,-977.92,0.264,-0.02
-910.0,1007.0,120890.0,223.0,-910.0,1007.0,120890.0,6.838,-22.161,-977.88,0.272,0.0
-911.0,1006.0,120890.0,223.0,-911.0,1006.0,120890.0,6.872,-22.155,-977.88,0.121,-0.1
-910.0,1006.0,120891.0,223.0,-910.0,1006.0,120891.0,6.346,-22.176,-977.89,0.173,0.15
-909.0,1005.0,120891.0,223.0,-909.0,1005.0,120891.0,6.61,-22.226,-977.89,0.115,0.26
-908.0,1005.0,120892.0,223.0,-908.0,1005.0,120892.0,4.254,-22.341,-980.32,0.194,0.21
-908.0,1005.0,120892.0,223.0,-908.0,1005.0,120892.0,4.336,-24.837,-982.61,0.344,0.06
-908.0,1006.0,120893.0,223.0,-908.0,1006.0,120893.0,4.749,-27.167,-981.96,0.254,0.04
-909.0,1006.0,120893.0,223.0,-909.0,1006.0,120893.0,4.32,-26.509,-979.28,0.177,-0.13
-909.0,1006.0,120894.0,223.0,-909.0,1006.0,120894.0,4.341,-26.195,-979.51,0.153,0.03
-909.0,1005.0,120894.0,223.0,-909.0,1005.0,120894.0,4.394,-24.069,-982.44,0.078,-0.03
-909.0,1005.0,120895.0,223.0,-909.0,1005.0,120895.0,4.469,-24.019,-982.16,0.209,-0.0
-909.0,1006.0,120895.0,223.0,-909.0,1006.0,120895.0,6.891,-26.876,-981.57,0.354,0.0
-908.0,1007.0,120896.0,223.0,-908.0,1007.0,120896.0,9.308,-26.607,-981.76,0.248,0.11
-907.0,1008.0,120896.0,223.0,-907.0,1008.0,120896.0,8.721,-26.06,-979.33,0.324,0.21
-905.0,1008.0,120897.0,223.0,-905.0,1008.0,120897.0,8.437,-26.252,-979.41,0.244,0.24
-903.0,1008.0,120897.0,223.0,-903.0,1008.0,120897.0,8.604,-23.839,-979.96,0.234,0.35
-902.0,1008.0,120898.0,223.0,-902.0,1008.0,120898.0,6.105,-21.511,-979.84,0.289,0.07
-902.0,1007.0,120898.0,223.0,-902.0,1007.0,120898.0,3.67,-22.014,-979.93,0.134,0.08
-903.0,1007.0,120899.0,223.0,-903.0,1007.0,120899.0,4.035,-22.246,-977.5,0.167,0.02
-903.0,1006.0,120899.0,223.0,-903.0,1006.0,120899.0,4.366,-22.194,-979.95,0.113,0.02
-902.0,1005.0,120900.0,223.0,-902.0,1005.0,120900.0,4.217,-22.292,-980.45,0.19,0.28
-901.0,1006.0,120900.0,223.0,-901.0,1006.0,120900.0,4.305,-22.322,-979.66,0.342,0.19
-901.0,1005.0,120901.0,223.0,-901.0,1005.0,120901.0,2.116,-22.478,-982.41,0.257,0.07
-902.0,1005.0,120902.0,223.0,-902.0,1005.0,120902.0,5.193,-22.5,-981.71,0.245,-0.14
-903.0,1006.0,120902.0,223.0,-903.0,1006.0,120902.0,4.939,-24.808,-981.88,0.236,0.02
-903.0,1006.0,120903.0,223.0,-903.0,1006.0,120903.0,4.484,-27.024,-981.77,0.285,-0.02
-904.0,1007.0,120903.0,223.0,-904.0,1007.0,120903.0,4.739,-26.39,-981.82,0.278,-0.14
-904.0,1008.0,120904.0,223.0,-904.0,1008.0,120904.0,4.729,-26.049,-981.79,0.264,0.05
-904.0,1008.0,120904.0,223.0,-904.0,1008.0,120904.0,4.787,-26.201,-981.8,0.271,-0.08
-904.0,1009.0,120905.0,223.0,-904.0,1009.0,120905.0,4.766,-26.163,-981.81,0.265,0.19
-902.0,1009.0,120905.0,223.0,-902.0,1009.0,120905.0,7.061,-26.128,-979.36,0.267,0.23
-901.0,1010.0,120906.0,223.0,-901.0,1010.0,120906.0,6.878,-26.054,-977.03,0.272,0.19
-900.0,1010.0,120906.0,223.0,-900.0,1010.0,120906.0,3.887,-26.092,-977.68,0.268,0.35
-899.0,1011.0,120907.0,223.0,-899.0,1011.0,120907.0,4.052,-26.129,-977.98,0.267,0.22
-898.0,1012.0,120908.0,223.0,-898.0,1012.0,120908.0,4.048,-26.155,-977.85,0.268,0.18
-898.0,1012.0,120909.0,223.0,-898.0,1012.0,120909.0,4.033,-26.156,-977.84,0.123,-0.04
-898.0,1012.0,120909.0,223.0,-898.0,1012.0,120909.0,6.384,-26.176,-977.81,0.174,0.11
-897.0,1011.0,120910.0,223.0,-897.0,1011.0,120910.0,6.442,-26.179,-977.8,-0.036,0.2
-897.0,1010.0,120910.0,223.0,-897.0,1010.0,120910.0,3.656,-26.17,-977.86,0.097,0.04
-896.0,1010.0,120911.0,223.0,-896.0,1010.0,120911.0,4.088,-26.213,-977.86,0.04,0.31
-896.0,1009.0,120911.0,223.0,-896.0,1009.0,120911.0,4.772,-26.362,-980.23,0.081,-0.05
-896.0,1009.0,120912.0,223.0,-896.0,1009.0,120912.0,4.718,-24.157,-982.62,0.093,0.12
-895.0,1008.0,120912.0,223.0,-895.0,1008.0,120912.0,7.069,-24.164,-979.59,0.06,0.19
-894.0,1007.0,120913.0,223.0,-894.0,1007.0,120913.0,9.337,-24.708,-979.29,0.059,0.16
-891.0,1007.0,120913.0,223.0,-891.0,1007.0,120913.0,8.849,-24.565,-982.4,0.076,0.4
-890.0,1007.0,120914.0,223.0,-890.0,1007.0,120914.0,8.444,-26.904,-982.03,0.214,0.11
-889.0,1007.0,120914.0,223.0,-889.0,1007.0,120914.0,6.142,-26.738,-981.6,0.165,0.19
-889.0,1008.0,120915.0,223.0,-889.0,1008.0,120915.0,3.708,-26.135,-981.85,0.375,0.11
-889.0,1009.0,120915.0,223.0,-889.0,1009.0,120915.0,6.524,-26.236,-979.36,0.238,0.04
-888.0,1010.0,120916.0,223.0,-888.0,1010.0,120916.0,6.646,-28.333,-977.01,0.297,0.12
-888.0,1010.0,120916.0,223.0,-888.0,1010.0,120916.0,6.007,-28.257,-977.57,0.258,0.02
-888.0,1010.0,120917.0,223.0,-888.0,1010.0,120917.0,8.745,-25.326,-977.91,0.1,-0.04
-887.0,1010.0,120917.0,223.0,-887.0,1010.0,120917.0,8.701,-25.574,-977.73,0.183,0.02
-888.0,1010.0,120918.0,223.0,-888.0,1010.0,120918.0,8.297,-26.061,-977.77,0.12,-0.08
-888.0,1010.0,120918.0,223.0,-888.0,1010.0,120918.0,6.212,-25.889,-977.81,0.186,0.0
-888.0,1010.0,120919.0,223.0,-888.0,1010.0,120919.0,3.896,-23.682,-977.92,0.344,0.02
-888.0,1010.0,120919.0,223.0,-888.0,1010.0,120919.0,4.554,-23.819,-977.89,0.251,-0.03
-888.0,1011.0,120920.0,223.0,-888.0,1011.0,120920.0,2.499,-26.868,-980.27,0.318,0.12
-889.0,1012.0,120920.0,223.0,-889.0,1012.0,120920.0,0.058,-26.664,-982.66,0.248,0.08
-888.0,1012.0,120921.0,223.0,-888.0,1012.0,120921.0,0.603,-26.156,-982.06,0.235,0.27
-888.0,1012.0,120921.0,223.0,-888.0,1012.0,120921.0,0.783,-26.312,-981.75,0.138,0.29
-887.0,1012.0,120922.0,223.0,-887.0,1012.0,120922.0,0.614,-26.29,-984.31,0.183,0.3
-887.0,1012.0,120922.0,223.0,-887.0,1012.0,120922.0,0.602,-26.369,-986.6,0.104,0.31
-887.0,1011.0,120923.0,223.0,-887.0,1011.0,120923.0,0.463,-26.317,-986.02,0.049,0.09
-887.0,1012.0,120923.0,223.0,-887.0,1012.0,120923.0,0.39,-26.357,-985.69,0.245,0.16
-887.0,1012.0,120924.0,223.0,-887.0,1012.0,120924.0,2.722,-26.444,-985.83,0.091,0.14
-886.0,1012.0,120924.0,223.0,-886.0,1012.0,120924.0,5.084,-26.516,-985.74,0.248,0.2
-885.0,1013.0,120925.0,223.0,-885.0,1013.0,120925.0,4.604,-26.556,-985.76,0.321,0.34
-884.0,1012.0,120925.0,223.0,-884.0,1012.0,120925.0,4.343,-26.471,-983.36,0.072,0.26
-883.0,1013.0,120926.0,223.0,-883.0,1013.0,120926.0,4.548,-26.355,-981.04,0.242,0.32
-882.0,1013.0,120926.0,223.0,-882.0,1013.0,120926.0,4.589,-26.318,-981.62,0.097,0.11
-882.0,1013.0,120927.0,223.0,-882.0,1013.0,120927.0,4.624,-26.27,-981.93,0.153,0.15
-882.0,1013.0,120927.0,223.0,-882.0,1013.0,120927.0,4.601,-23.879,-981.81,0.362,-0.0
-882.0,1013.0,120928.0,223.0,-882.0,1013.0,120928.0,4.539,-21.488,-979.51,0.257,-0.02
-882.0,1013.0,120928.0,223.0,-882.0,1013.0,120928.0,4.547,-22.067,-979.54,0.312,0.09
-882.0,1013.0,120929.0,223.0,-882.0,1013.0,120929.0,4.684,-22.468,-982.48,0.252,0.03
-881.0,1013.0,120929.0,223.0,-881.0,1013.0,120929.0,4.741,-22.272,-982.18,0.231,0.32
-880.0,1012.0,120930.0,223.0,-880.0,1012.0,120930.0,2.399,-22.254,-981.75,0.135,0.31
-880.0,1011.0,120930.0,223.0,-880.0,1011.0,120930.0,0.105,-19.876,-982.06,0.186,0.28
-879.0,1010.0,120930.0,223.0,-879.0,1010.0,120930.0,0.632,-19.966,-981.99,0.103,0.32
-879.0,1009.0,120930.0,223.0,-879.0,1009.0,120930.0,3.183,-22.893,-981.91,0.192,0.09
-879.0,1010.0,120931.0,223.0,-879.0,1010.0,120931.0,5.124,-22.613,-979.46,0.485,0.02
-879.0,1010.0,120932.0,223.0,-879.0,1010.0,120932.0,4.403,-22.122,-977.16,0.343,0.05
-880.0,1011.0,120932.0,223.0,-880.0,1011.0,120932.0,4.07,-22.375,-977.75,0.481,0.04
-879.0,1012.0,120933.0,223.0,-879.0,1012.0,120933.0,4.313,-22.307,-978.05,0.322,0.13
-878.0,1011.0,120933.0,223.0,-878.0,1011.0,120933.0,4.355,-22.248,-977.88,0.156,0.24
-878.0,1011.0,120934.0,223.0,-878.0,1011.0,120934.0,4.554,-24.552,-980.27,0.299,0.15
-878.0,1012.0,120934.0,223.0,-878.0,1012.0,120934.0,4.612,-26.788,-980.16,0.224,0.09
-877.0,1012.0,120935.0,223.0,-877.0,1012.0,120935.0,4.642,-26.178,-979.65,0.283,0.2
-877.0,1013.0,120935.0,223.0,-877.0,1013.0,120935.0,4.712,-26.006,-982.26,0.302,0.08
-877.0,1013.0,120936.0,223.0,-877.0,1013.0,120936.0,4.66,-26.246,-982.15,0.102,0.13
-876.0,1013.0,120936.0,223.0,-876.0,1013.0,120936.0,4.593,-26.261,-981.63,0.16,0.1
-877.0,1012.0,120937.0,223.0,-877.0,1012.0,120937.0,4.553,-26.349,-981.85,-0.028,-0.02
-877.0,1012.0,120937.0,223.0,-877.0,1012.0,120937.0,4.523,-26.393,-981.78,0.094,-0.02
-877.0,1012.0,120938.0,223.0,-877.0,1012.0,120938.0,4.527,-26.469,-981.83,0.185,0.02
-878.0,1011.0,120938.0,223.0,-878.0,1011.0,120938.0,4.479,-26.433,-979.4,0.032,-0.08
-879.0,1012.0,120939.0,223.0,-879.0,1012.0,120939.0,4.456,-26.376,-977.08,0.296,-0.12
-879.0,1011.0,120939.0,223.0,-879.0,1011.0,120939.0,4.537,-26.395,-977.67,0.07,0.06
-879.0,1012.0,120940.0,223.0,-879.0,1012.0,120940.0,4.603,-26.359,-977.97,0.212,0.04
-879.0,1012.0,120940.0,223.0,-879.0,1012.0,120940.0,4.632,-26.275,-977.81,0.191,0.15
-878.0,1012.0,120941.0,223.0,-878.0,1012.0,120941.0,4.629,-26.187,-977.85,0.132,0.29
-878.0,1011.0,120941.0,223.0,-878.0,1011.0,120941.0,4.572,-26.102,-977.84,0.026,-0.03
-879.0,1010.0,120942.0,223.0,-879.0,1010.0,120942.0,4.562,-23.782,-980.29,0.085,-0.01
-879.0,1009.0,120942.0,223.0,-879.0,1009.0,120942.0,4.532,-21.55,-982.66,0.142,-0.06
-881.0,1009.0,120943.0,223.0,-881.0,1009.0,120943.0,4.409,-24.47,-982.02,0.191,-0.21
-881.0,1011.0,120943.0,223.0,-881.0,1011.0,120943.0,4.364,-27.098,-981.66,0.404,-0.03
-881.0,1011.0,120944.0,223.0,-881.0,1011.0,120944.0,4.428,-26.402,-981.84,0.221,-0.0
-882.0,1011.0,120944.0,223.0,-882.0,1011.0,120944.0,4.545,-23.808,-981.85,0.29,-0.02
-881.0,1011.0,120945.0,223.0,-881.0,1011.0,120945.0,4.666,-21.643,-981.9,0.258,0.21
-880.0,1010.0,120945.0,223.0,-880.0,1010.0,120945.0,4.733,-22.141,-981.87,0.094,0.18
-880.0,1010.0,120946.0,223.0,-880.0,1010.0,120946.0,4.66,-22.3,-979.49,0.186,0.19
-879.0,1009.0,120946.0,223.0,-879.0,1009.0,120946.0,4.507,-24.355,-977.11,0.119,0.23
-879.0,1009.0,120947.0,223.0,-879.0,1009.0,120947.0,4.398,-26.749,-977.65,0.18,0.13
-878.0,1010.0,120947.0,223.0,-878.0,1010.0,120947.0,4.292,-23.876,-978.02,0.342,0.15
-878.0,1009.0,120948.0,223.0,-878.0,1009.0,120948.0,4.191,-21.362,-977.9,0.25,0.06
-878.0,1010.0,120948.0,223.0,-878.0,1010.0,120948.0,4.116,-24.499,-977.88,0.316,0.08
-879.0,1011.0,120949.0,223.0,-879.0,1011.0,120949.0,6.483,-27.091,-977.78,0.247,-0.11
-878.0,1011.0,120949.0,223.0,-878.0,1011.0,120949.0,8.891,-24.015,-977.81,0.233,0.01
-878.0,1011.0,120950.0,223.0,-878.0,1011.0,120950.0,8.423,-23.74,-977.81,0.28,-0.04
-877.0,1011.0,120950.0,223.0,-877.0,1011.0,120950.0,8.243,-26.735,-977.76,0.276,0.13
-877.0,1011.0,120951.0,223.0,-877.0,1011.0,120951.0,6.265,-24.12,-980.25,0.116,0.1
-877.0,1010.0,120951.0,223.0,-877.0,1010.0,120951.0,4.003,-21.315,-980.29,0.173,-0.01
-878.0,1009.0,120952.0,223.0,-878.0,1009.0,120952.0,4.518,-22.004,-977.34,0.104,-0.04
-879.0,1009.0,120952.0,223.0,-879.0,1009.0,120952.0,4.855,-22.407,-980.0,0.188,-0.23
-880.0,1009.0,120953.0,223.0,-880.0,1009.0,120953.0,4.731,-22.421,-982.82,0.344,-0.07
-881.0,1008.0,120953.0,223.0,-881.0,1008.0,120953.0,2.32,-22.44,-982.06,0.104,-0.12
-883.0,1008.0,120954.0,223.0,-883.0,1008.0,120954.0,0.039,-22.544,-984.24,0.221,-0.09
-884.0,1007.0,120954.0,223.0,-884.0,1007.0,120954.0,0.658,-22.572,-984.32,0.085,-0.08
-885.0,1006.0,120955.0,223.0,-885.0,1006.0,120955.0,0.867,-22.425,-981.37,0.011,0.01
-886.0,1005.0,120955.0,223.0,-886.0,1005.0,120955.0,0.717,-22.416,-981.65,0.117,-0.02
-887.0,1003.0,120956.0,223.0,-887.0,1003.0,120956.0,0.765,-22.425,-982.11,0.005,0.05
-887.0,1002.0,120956.0,223.0,-887.0,1002.0,120956.0,3.078,-22.446,-981.87,0.078,-0.03
-888.0,1002.0,120957.0,223.0,-888.0,1002.0,120957.0,2.983,-22.474,-981.92,0.245,-0.04
-889.0,1002.0,120957.0,223.0,-889.0,1002.0,120957.0,2.369,-22.492,-981.9,0.288,-0.0
-889.0,1002.0,120958.0,223.0,-889.0,1002.0,120958.0,4.844,-22.433,-979.5,0.315,-0.01
-889.0,1003.0,120958.0,223.0,-889.0,1003.0,120958.0,4.633,-22.308,-977.14,0.309,0.12
-889.0,1002.0,120958.0,223.0,-889.0,1002.0,120958.0,4.13,-22.242,-977.74,0.205,0.08
-888.0,1002.0,120958.0,223.0,-888.0,1002.0,120958.0,6.749,-22.172,-978.01,0.249,0.13
-887.0,1002.0,120959.0,223.0,-887.0,1002.0,120959.0,6.625,-22.07,-977.84,0.288,0.19
-887.0,1002.0,120959.0,223.0,-887.0,1002.0,120959.0,3.678,-21.902,-975.55,0.267,0.0
-887.0,1002.0,120960.0,223.0,-887.0,1002.0,120960.0,3.912,-21.898,-975.59,0.265,0.15
-887.0,1002.0,120960.0,223.0,-887.0,1002.0,120960.0,4.483,-22.041,-978.52,0.264,0.14
-887.0,1002.0,120961.0,223.0,-887.0,1002.0,120961.0,4.251,-24.429,-978.18,0.258,0.02
-886.0,1002.0,120961.0,223.0,-886.0,1002.0,120961.0,4.374,-24.51,-980.1,0.267,0.18
-887.0,1002.0,120962.0,223.0,-887.0,1002.0,120962.0,4.478,-21.794,-982.71,0.268,-0.14
-888.0,1002.0,120962.0,223.0,-888.0,1002.0,120962.0,2.136,-24.423,-982.05,0.263,-0.02
-889.0,1002.0,120963.0,223.0,-889.0,1002.0,120963.0,2.209,-24.862,-981.76,0.119,-0.02
-888.0,1001.0,120963.0,223.0,-888.0,1001.0,120963.0,5.203,-21.831,-981.91,0.17,0.13
-887.0,1000.0,120964.0,223.0,-887.0,1000.0,120964.0,7.372,-22.19,-981.84,0.105,0.24
-886.0,1000.0,120964.0,223.0,-886.0,1000.0,120964.0,6.884,-22.641,-981.85,0.189,0.23
-885.0,1000.0,120965.0,223.0,-885.0,1000.0,120965.0,4.185,-22.459,-981.88,0.34,0.19
-885.0,1000.0,120965.0,223.0,-885.0,1000.0,120965.0,4.266,-22.431,-979.5,0.247,-0.01
-885.0,1000.0,120966.0,223.0,-885.0,1000.0,120966.0,4.585,-22.322,-977.15,0.317,0.07
-886.0,999.0,120966.0,223.0,-886.0,999.0,120966.0,4.262,-22.346,-977.74,0.098,-0.09
-886.0,998.0,120967.0,223.0,-886.0,998.0,120967.0,4.295,-22.278,-978.05,-0.009,0.15
-885.0,997.0,120968.0,223.0,-885.0,997.0,120968.0,4.277,-22.215,-977.88,0.027,0.18
-884.0,996.0,120968.0,223.0,-884.0,996.0,120968.0,4.43,-24.637,-980.27,0.039,0.24
-884.0,997.0,120969.0,223.0,-884.0,997.0,120969.0,2.173,-27.02,-982.59,0.258,0.23
-885.0,997.0,120969.0,223.0,-885.0,997.0,120969.0,2.242,-26.493,-982.03,0.18,-0.02
-885.0,997.0,120970.0,223.0,-885.0,997.0,120970.0,5.139,-26.276,-981.66,0.202,0.06
-885.0,997.0,120970.0,223.0,-885.0,997.0,120970.0,4.832,-26.474,-981.84,0.134,0.04
-884.0,997.0,120971.0,223.0,-884.0,997.0,120971.0,4.346,-26.403,-981.81,0.137,0.24
-883.0,997.0,120971.0,223.0,-883.0,997.0,120971.0,4.572,-26.36,-981.81,0.177,0.2
-882.0,997.0,120972.0,223.0,-882.0,997.0,120972.0,4.539,-26.28,-981.79,0.177,0.22
-882.0,997.0,120972.0,223.0,-882.0,997.0,120972.0,4.573,-26.244,-981.81,0.162,0.0
-883.0,997.0,120973.0,223.0,-883.0,997.0,120973.0,4.525,-26.207,-981.8,0.163,-0.08
-883.0,998.0,120973.0,223.0,-883.0,998.0,120973.0,4.521,-26.188,-981.8,0.305,0.08
-884.0,998.0,120974.0,223.0,-884.0,998.0,120974.0,4.448,-26.104,-979.41,0.114,-0.08
-884.0,998.0,120974.0,223.0,-884.0,998.0,120974.0,4.403,-26.024,-977.08,0.233,0.09
-884.0,998.0,120975.0,223.0,-884.0,998.0,120975.0,4.489,-26.052,-977.67,0.082,-0.07
-885.0,998.0,120975.0,223.0,-885.0,998.0,120975.0,4.557,-26.074,-977.97,0.156,-0.18
-886.0,998.0,120976.0,223.0,-886.0,998.0,120976.0,4.686,-23.828,-980.24,0.351,-0.07
-887.0,998.0,120976.0,223.0,-887.0,998.0,120976.0,4.805,-21.649,-982.67,0.255,-0.17
-887.0,998.0,120977.0,223.0,-887.0,998.0,120977.0,4.722,-22.139,-979.67,0.314,0.04
-887.0,998.0,120977.0,223.0,-887.0,998.0,120977.0,4.642,-22.341,-977.03,0.244,0.16
-886.0,998.0,120978.0,223.0,-886.0,998.0,120978.0,4.651,-22.172,-977.78,0.226,0.25
-885.0,997.0,120978.0,223.0,-885.0,997.0,120978.0,4.678,-22.272,-980.44,0.133,0.19
-884.0,997.0,120979.0,223.0,-884.0,997.0,120979.0,4.558,-22.225,-980.23,0.182,0.19
-884.0,996.0,120979.0,223.0,-884.0,996.0,120979.0,4.392,-22.222,-979.71,0.099,0.13
-884.0,995.0,120980.0,223.0,-884.0,995.0,120980.0,4.332,-22.333,-982.34,0.189,0.17
-882.0,996.0,120980.0,223.0,-882.0,996.0,120980.0,6.508,-24.669,-979.76,0.336,0.33
-880.0,997.0,120981.0,223.0,-880.0,997.0,120981.0,8.681,-26.944,-976.8,0.245,0.27
-879.0,997.0,120981.0,223.0,-879.0,997.0,120981.0,8.222,-26.513,-980.03,0.319,0.18
-879.0,998.0,120982.0,223.0,-879.0,998.0,120982.0,8.053,-26.305,-982.61,0.242,0.01
-879.0,998.0,120982.0,223.0,-879.0,998.0,120982.0,5.892,-26.388,-981.93,0.228,-0.0
-879.0,999.0,120983.0,223.0,-879.0,999.0,120983.0,3.612,-26.255,-981.68,0.28,-0.08
-880.0,1000.0,120983.0,223.0,-880.0,1000.0,120983.0,4.336,-26.224,-981.84,0.273,0.05
-879.0,1000.0,120984.0,223.0,-879.0,1000.0,120984.0,4.686,-26.087,-979.42,0.258,0.08
-879.0,1001.0,120984.0,223.0,-879.0,1001.0,120984.0,6.962,-26.023,-977.03,0.266,0.08
-878.0,1001.0,120985.0,223.0,-878.0,1001.0,120985.0,7.057,-26.046,-977.61,0.26,0.15
-878.0,1002.0,120985.0,223.0,-878.0,1002.0,120985.0,4.26,-23.786,-980.43,0.406,0.04
-878.0,1002.0,120986.0,223.0,-878.0,1002.0,120986.0,4.598,-21.602,-982.63,0.362,0.05
-879.0,1003.0,120986.0,223.0,-879.0,1003.0,120986.0,4.925,-24.527,-982.01,0.421,-0.03
-879.0,1004.0,120987.0,223.0,-879.0,1004.0,120987.0,4.582,-27.107,-981.65,0.337,-0.0
-880.0,1005.0,120987.0,223.0,-880.0,1005.0,120987.0,4.566,-26.349,-981.85,0.188,-0.07
-881.0,1005.0,120988.0,223.0,-881.0,1005.0,120988.0,4.504,-23.715,-981.85,0.279,-0.12
-881.0,1005.0,120988.0,223.0,-881.0,1005.0,120988.0,4.539,-23.914,-981.85,0.21,-0.08
-883.0,1005.0,120989.0,223.0,-883.0,1005.0,120989.0,4.625,-26.866,-984.17,0.285,-0.18
-883.0,1006.0,120989.0,223.0,-883.0,1006.0,120989.0,4.686,-26.633,-984.14,0.296,-0.09
-884.0,1007.0,120990.0,223.0,-884.0,1007.0,120990.0,4.666,-26.104,-981.22,0.246,-0.08
-885.0,1007.0,120990.0,223.0,-885.0,1007.0,120990.0,4.722,-26.392,-981.49,0.253,-0.12
-885.0,1008.0,120991.0,223.0,-885.0,1008.0,120991.0,4.843,-26.465,-984.36,0.268,0.02
-885.0,1008.0,120991.0,223.0,-885.0,1008.0,120991.0,4.904,-26.572,-986.48,0.26,-0.01
-885.0,1009.0,120992.0,223.0,-885.0,1009.0,120992.0,4.762,-26.425,-983.56,0.266,0.17
-884.0,1009.0,120992.0,223.0,-884.0,1009.0,120992.0,4.598,-26.319,-980.89,0.264,0.19
-884.0,1010.0,120993.0,223.0,-884.0,1010.0,120993.0,4.524,-26.319,-981.68,0.259,0.06
-883.0,1010.0,120993.0,223.0,-883.0,1010.0,120993.0,4.496,-26.379,-984.31,0.262,0.26
-884.0,1011.0,120994.0,223.0,-884.0,1011.0,120994.0,4.458,-26.44,-986.49,0.264,-0.06
-884.0,1011.0,120994.0,223.0,-884.0,1011.0,120994.0,4.359,-26.403,-985.93,0.262,0.0
-884.0,1012.0,120995.0,223.0,-884.0,1012.0,120995.0,4.323,-26.384,-985.63,0.263,0.1
-885.0,1012.0,120995.0,223.0,-885.0,1012.0,120995.0,4.369,-26.392,-985.81,0.262,-0.13
-885.0,1013.0,120996.0,223.0,-885.0,1013.0,120996.0,4.464,-26.394,-985.75,0.262,0.1
-885.0,1014.0,120996.0,223.0,-885.0,1014.0,120996.0,4.592,-26.402,-985.77,0.407,-0.06
-886.0,1015.0,120997.0,223.0,-886.0,1015.0,120997.0,4.639,-26.321,-983.36,0.212,-0.04
-885.0,1015.0,120997.0,223.0,-885.0,1015.0,120997.0,4.665,-26.235,-981.04,0.181,0.16
-885.0,1014.0,120998.0,223.0,-885.0,1014.0,120998.0,4.668,-26.161,-979.24,0.085,0.07
-884.0,1013.0,120998.0,223.0,-884.0,1013.0,120998.0,4.614,-26.086,-977.2,-0.048,0.26
-884.0,1014.0,120999.0,223.0,-884.0,1014.0,120999.0,4.586,-26.128,-977.63,0.278,0.02
-884.0,1014.0,120999.0,223.0,-884.0,1014.0,120999.0,4.429,-26.113,-975.59,0.269,0.1
-884.0,1015.0,121000.0,223.0,-884.0,1015.0,121000.0,4.236,-26.093,-973.07,0.32,0.0
-885.0,1016.0,121000.0,223.0,-885.0,1016.0,121000.0,4.163,-26.161,-973.72,0.326,-0.05
-885.0,1016.0,121001.0,223.0,-885.0,1016.0,121001.0,4.123,-26.157,-974.01,0.191,0.02
-886.0,1016.0,121001.0,223.0,-886.0,1016.0,121001.0,4.126,-26.084,-973.86,0.235,-0.07
-886.0,1017.0,121002.0,223.0,-886.0,1017.0,121002.0,4.263,-26.08,-976.28,0.293,-0.0
-886.0,1018.0,121002.0,223.0,-886.0,1018.0,121002.0,2.129,-26.147,-981.04,0.264,0.15
-887.0,1018.0,121003.0,223.0,-887.0,1018.0,121003.0,-0.048,-26.137,-982.85,0.262,0.06
-887.0,1019.0,121003.0,223.0,-887.0,1019.0,121003.0,2.938,-26.111,-981.88,0.408,-0.0
-888.0,1020.0,121004.0,223.0,-888.0,1020.0,121004.0,5.569,-26.135,-981.7,0.348,-0.02
-889.0,1021.0,121004.0,223.0,-889.0,1021.0,121004.0,4.791,-26.148,-981.84,0.422,-0.24
-889.0,1022.0,121005.0,223.0,-889.0,1022.0,121005.0,4.492,-26.157,-981.81,0.343,0.07
-889.0,1022.0,121005.0,223.0,-889.0,1022.0,121005.0,4.71,-26.247,-984.19,0.184,0.1
-888.0,1022.0,121006.0,223.0,-888.0,1022.0,121006.0,4.686,-26.242,-984.13,0.132,0.28
-887.0,1022.0,121006.0,223.0,-887.0,1022.0,121006.0,4.586,-26.149,-981.22,0.115,0.23
-887.0,1022.0,121007.0,223.0,-887.0,1022.0,121007.0,4.546,-26.205,-981.49,0.124,0.03
-887.0,1022.0,121007.0,223.0,-887.0,1022.0,121007.0,4.504,-26.306,-981.97,0.22,0.03
-888.0,1022.0,121008.0,223.0,-888.0,1022.0,121008.0,4.415,-24.053,-981.81,0.321,-0.11
-888.0,1022.0,121008.0,223.0,-888.0,1022.0,121008.0,4.37,-21.847,-981.9,0.235,0.02
-888.0,1022.0,121009.0,223.0,-888.0,1022.0,121009.0,4.376,-22.461,-981.86,0.319,0.1
-889.0,1022.0,121009.0,223.0,-889.0,1022.0,121009.0,4.44,-22.738,-981.89,0.238,-0.05
-887.0,1022.0,121010.0,223.0,-887.0,1022.0,121010.0,6.909,-22.519,-981.83,0.231,0.2
-887.0,1022.0,121010.0,223.0,-887.0,1022.0,121010.0,6.94,-22.465,-981.83,0.28,-0.01
-887.0,1022.0,121011.0,223.0,-887.0,1022.0,121011.0,4.085,-22.339,-981.89,0.267,0.12
-887.0,1021.0,121011.0,223.0,-887.0,1021.0,121011.0,4.377,-22.296,-981.88,0.256,0.1
-887.0,1022.0,121012.0,223.0,-887.0,1022.0,121012.0,4.815,-24.601,-981.83,0.265,0.04
-886.0,1022.0,121012.0,223.0,-886.0,1022.0,121012.0,4.626,-26.98,-984.18,0.258,0.22
-886.0,1022.0,121013.0,223.0,-886.0,1022.0,121013.0,4.723,-24.164,-986.57,0.259,0.04
-886.0,1022.0,121014.0,223.0,-886.0,1022.0,121014.0,4.55,-23.837,-983.6,0.265,0.13
-886.0,1023.0,121014.0,223.0,-886.0,1023.0,121014.0,4.438,-26.817,-980.89,0.261,0.0
-887.0,1023.0,121015.0,223.0,-887.0,1023.0,121015.0,4.521,-24.299,-984.1,0.26,-0.06
-887.0,1023.0,121015.0,223.0,-887.0,1023.0,121015.0,4.55,-21.581,-984.36,0.262,0.02
-887.0,1023.0,121016.0,223.0,-887.0,1023.0,121016.0,4.477,-24.599,-981.21,0.261,0.06
-886.0,1023.0,121017.0,223.0,-886.0,1023.0,121017.0,6.993,-26.486,-981.92,0.116,0.21
-885.0,1023.0,121017.0,223.0,-885.0,1023.0,121017.0,6.983,-26.178,-981.73,0.166,0.11
-885.0,1023.0,121018.0,223.0,-885.0,1023.0,121018.0,4.09,-26.329,-981.82,0.102,0.21
-883.0,1023.0,121018.0,223.0,-883.0,1023.0,121018.0,4.341,-26.32,-981.79,0.185,0.39
-883.0,1024.0,121019.0,223.0,-883.0,1024.0,121019.0,7.118,-26.367,-981.77,0.336,0.06
-882.0,1024.0,121019.0,223.0,-882.0,1024.0,121019.0,6.752,-26.386,-981.76,0.245,0.21
-882.0,1025.0,121020.0,223.0,-882.0,1025.0,121020.0,3.798,-26.388,-981.81,0.313,-0.01
-882.0,1026.0,121020.0,223.0,-882.0,1026.0,121020.0,6.278,-26.296,-979.38,0.239,0.07
-881.0,1026.0,121021.0,223.0,-881.0,1026.0,121021.0,9.021,-26.182,-976.98,0.228,0.06
-880.0,1026.0,121021.0,223.0,-880.0,1026.0,121021.0,8.285,-26.135,-977.59,0.277,0.1
-879.0,1027.0,121022.0,223.0,-879.0,1027.0,121022.0,8.146,-26.087,-977.9,0.27,0.23
-878.0,1027.0,121022.0,223.0,-878.0,1027.0,121022.0,8.397,-26.052,-977.73,0.255,0.02
-877.0,1028.0,121023.0,223.0,-877.0,1028.0,121023.0,8.542,-26.134,-980.16,0.263,0.27
-876.0,1028.0,121023.0,223.0,-876.0,1028.0,121023.0,8.648,-26.23,-982.49,0.112,-0.04
-877.0,1028.0,121024.0,223.0,-877.0,1028.0,121024.0,6.228,-26.214,-981.96,0.164,-0.0
-877.0,1027.0,121024.0,223.0,-877.0,1027.0,121024.0,3.887,-26.221,-981.69,0.106,-0.04
-879.0,1027.0,121025.0,223.0,-879.0,1027.0,121025.0,4.444,-26.288,-981.85,0.185,-0.22
-879.0,1028.0,121025.0,223.0,-879.0,1028.0,121025.0,4.745,-26.351,-981.8,0.335,-0.05
-879.0,1029.0,121026.0,223.0,-879.0,1029.0,121026.0,4.613,-26.403,-981.81,0.245,0.0
-880.0,1029.0,121026.0,223.0,-880.0,1029.0,121026.0,4.71,-26.424,-981.79,0.313,-0.02
-880.0,1030.0,121027.0,223.0,-880.0,1030.0,121027.0,4.749,-26.401,-981.81,0.239,0.07
-881.0,1030.0,121027.0,223.0,-881.0,1030.0,121027.0,2.42,-23.972,-981.89,0.228,-0.04
-883.0,1029.0,121028.0,223.0,-883.0,1029.0,121028.0,0.066,-21.582,-981.98,0.131,-0.19
-884.0,1028.0,121028.0,223.0,-884.0,1028.0,121028.0,0.588,-22.103,-981.96,0.175,-0.08
-886.0,1027.0,121029.0,223.0,-886.0,1027.0,121029.0,0.829,-22.377,-981.95,0.096,-0.16
-887.0,1026.0,121029.0,223.0,-887.0,1026.0,121029.0,0.619,-22.221,-981.95,0.187,-0.09
-888.0,1027.0,121030.0,223.0,-888.0,1027.0,121030.0,0.577,-22.225,-979.56,0.332,-0.07
-890.0,1026.0,121030.0,223.0,-890.0,1026.0,121030.0,0.584,-22.278,-979.62,0.242,-0.12
-892.0,1026.0,121031.0,223.0,-892.0,1026.0,121031.0,0.718,-22.449,-982.54,0.316,-0.12
-893.0,1026.0,121031.0,223.0,-893.0,1026.0,121031.0,0.628,-22.347,-979.87,0.238,-0.1
-894.0,1026.0,121032.0,223.0,-894.0,1026.0,121032.0,2.902,-24.587,-976.97,0.225,-0.11
-895.0,1027.0,121032.0,223.0,-895.0,1027.0,121032.0,2.94,-26.95,-980.12,0.277,0.03
-895.0,1027.0,121033.0,223.0,-895.0,1027.0,121033.0,0.107,-26.387,-982.77,0.269,0.12
-895.0,1028.0,121033.0,223.0,-895.0,1028.0,121033.0,0.34,-26.031,-982.04,0.255,0.13
-896.0,1028.0,121034.0,223.0,-896.0,1028.0,121034.0,0.753,-26.179,-981.73,0.262,0.11
-896.0,1029.0,121034.0,223.0,-896.0,1029.0,121034.0,0.472,-26.143,-981.91,0.256,0.03
-898.0,1029.0,121035.0,223.0,-898.0,1029.0,121035.0,0.52,-26.255,-984.28,0.258,-0.07
-898.0,1030.0,121035.0,223.0,-898.0,1030.0,121035.0,0.505,-26.345,-986.6,0.264,0.14
-899.0,1030.0,121036.0,223.0,-899.0,1030.0,121036.0,0.499,-26.363,-986.0,0.26,0.02
-899.0,1030.0,121036.0,223.0,-899.0,1030.0,121036.0,0.517,-24.026,-985.76,0.258,0.16
-899.0,1030.0,121037.0,223.0,-899.0,1030.0,121037.0,0.583,-24.097,-985.92,0.26,0.08
-900.0,1030.0,121037.0,223.0,-900.0,1030.0,121037.0,0.652,-24.634,-985.86,0.259,0.03
-900.0,1030.0,121038.0,223.0,-900.0,1030.0,121038.0,0.715,-22.066,-985.93,0.26,0.08
-901.0,1030.0,121038.0,223.0,-901.0,1030.0,121038.0,3.126,-22.195,-985.86,0.26,-0.04
-901.0,1030.0,121039.0,223.0,-901.0,1030.0,121039.0,5.472,-22.723,-985.82,0.259,-0.01
-902.0,1030.0,121039.0,223.0,-902.0,1030.0,121039.0,4.832,-22.405,-983.45,0.259,-0.2
-902.0,1030.0,121039.0,223.0,-902.0,1030.0,121039.0,4.467,-24.727,-981.06,0.26,0.05
-903.0,1030.0,121040.0,223.0,-903.0,1030.0,121040.0,4.683,-26.996,-981.61,0.114,-0.05
-902.0,1030.0,121040.0,223.0,-902.0,1030.0,121040.0,4.696,-26.462,-981.93,0.164,0.19
-902.0,1029.0,121040.0,223.0,-902.0,1029.0,121040.0,4.74,-23.805,-981.81,0.101,0.07
-902.0,1029.0,121041.0,223.0,-902.0,1029.0,121041.0,4.708,-24.047,-981.85,0.183,-0.04
-902.0,1028.0,121041.0,223.0,-902.0,1028.0,121041.0,4.661,-24.577,-981.83,0.19,0.1
-903.0,1028.0,121042.0,223.0,-903.0,1028.0,121042.0,4.592,-22.053,-981.9,0.148,-0.13
-903.0,1027.0,121042.0,223.0,-903.0,1027.0,121042.0,4.515,-22.171,-981.88,0.153,0.07
-903.0,1026.0,121043.0,223.0,-903.0,1026.0,121043.0,4.475,-22.7,-981.87,0.162,-0.05
-904.0,1026.0,121043.0,223.0,-904.0,1026.0,121043.0,4.472,-22.46,-981.88,0.156,-0.03
-903.0,1025.0,121044.0,223.0,-903.0,1025.0,121044.0,4.498,-22.498,-981.88,0.164,0.15
-903.0,1024.0,121044.0,223.0,-903.0,1024.0,121044.0,4.54,-22.427,-981.88,0.017,0.07
-902.0,1023.0,121045.0,223.0,-902.0,1023.0,121045.0,4.655,-22.517,-984.27,0.061,0.26
-901.0,1022.0,121045.0,223.0,-901.0,1022.0,121045.0,4.741,-22.572,-986.6,0.145,0.16
-902.0,1021.0,121046.0,223.0,-902.0,1021.0,121046.0,2.321,-22.529,-986.06,0.035,0.06
-902.0,1021.0,121046.0,223.0,-902.0,1021.0,121046.0,-0.066,-22.525,-985.8,0.3,0.07
-904.0,1019.0,121047.0,223.0,-904.0,1019.0,121047.0,0.466,-22.552,-985.95,0.061,-0.13
-905.0,1019.0,121047.0,223.0,-905.0,1019.0,121047.0,0.74,-22.56,-985.91,0.204,-0.12
-906.0,1019.0,121048.0,223.0,-906.0,1019.0,121048.0,0.594,-22.543,-985.92,0.179,0.01
-907.0,1018.0,121048.0,223.0,-907.0,1018.0,121048.0,0.635,-22.423,-983.51,0.122,-0.07
-907.0,1017.0,121049.0,223.0,-907.0,1017.0,121049.0,3.031,-22.322,-981.14,0.167,0.08
-908.0,1016.0,121049.0,223.0,-908.0,1016.0,121049.0,5.49,-22.333,-981.69,0.173,-0.01
-908.0,1016.0,121050.0,223.0,-908.0,1016.0,121050.0,4.96,-22.32,-982.0,0.291,-0.06
-908.0,1016.0,121050.0,223.0,-908.0,1016.0,121050.0,4.581,-22.219,-979.45,0.114,-0.0
-909.0,1015.0,121051.0,223.0,-909.0,1015.0,121051.0,4.644,-22.138,-977.16,0.226,-0.0
-908.0,1015.0,121051.0,223.0,-908.0,1015.0,121051.0,4.547,-24.506,-977.69,0.071,0.12
-909.0,1015.0,121052.0,223.0,-909.0,1015.0,121052.0,4.495,-26.818,-977.97,0.154,-0.05
-909.0,1016.0,121052.0,223.0,-909.0,1016.0,121052.0,6.786,-26.274,-977.75,0.347,0.04
-908.0,1016.0,121053.0,223.0,-908.0,1016.0,121053.0,9.068,-26.024,-977.76,0.248,0.03
-908.0,1017.0,121053.0,223.0,-908.0,1017.0,121053.0,8.439,-26.208,-977.76,0.31,-0.06
-907.0,1017.0,121054.0,223.0,-907.0,1017.0,121054.0,8.113,-26.162,-977.78,0.239,0.08
-906.0,1017.0,121054.0,223.0,-906.0,1017.0,121054.0,8.29,-26.146,-977.77,0.22,0.03
-906.0,1018.0,121055.0,223.0,-906.0,1018.0,121055.0,8.266,-26.09,-977.77,0.273,-0.07
-906.0,1018.0,121055.0,223.0,-906.0,1018.0,121055.0,8.303,-26.074,-977.77,0.271,0.09
-905.0,1019.0,121056.0,223.0,-905.0,1019.0,121056.0,8.312,-26.059,-977.77,0.253,0.03
-904.0,1019.0,121056.0,223.0,-904.0,1019.0,121056.0,8.35,-26.061,-977.77,0.259,0.06
-902.0,1020.0,121057.0,223.0,-902.0,1020.0,121057.0,8.362,-26.081,-977.77,0.255,0.32
-901.0,1020.0,121057.0,223.0,-901.0,1020.0,121057.0,8.355,-26.104,-977.77,0.256,0.13
-900.0,1021.0,121058.0,223.0,-900.0,1021.0,121058.0,8.329,-26.13,-977.77,0.262,0.19
-899.0,1021.0,121058.0,223.0,-899.0,1021.0,121058.0,8.272,-26.154,-977.77,0.258,0.17
-898.0,1020.0,121059.0,223.0,-898.0,1020.0,121059.0,5.923,-23.892,-980.25,0.111,0.14
-897.0,1020.0,121060.0,223.0,-897.0,1020.0,121060.0,3.641,-21.676,-982.68,0.163,0.32
-897.0,1019.0,121060.0,223.0,-897.0,1019.0,121060.0,4.18,-22.252,-982.07,0.099,0.14
-896.0,1018.0,121061.0,223.0,-896.0,1018.0,121061.0,4.555,-22.655,-984.14,0.182,0.08
-897.0,1019.0,121061.0,223.0,-897.0,1019.0,121061.0,4.495,-22.611,-986.65,0.334,-0.13
-898.0,1018.0,121062.0,223.0,-898.0,1018.0,121062.0,4.566,-22.662,-986.01,0.241,-0.07
-898.0,1018.0,121062.0,223.0,-898.0,1018.0,121062.0,4.632,-22.648,-985.72,0.31,-0.01
-898.0,1018.0,121063.0,223.0,-898.0,1018.0,121063.0,4.776,-22.643,-985.87,0.236,0.17
-897.0,1018.0,121063.0,223.0,-897.0,1018.0,121063.0,4.811,-22.482,-983.45,0.224,0.22
-896.0,1018.0,121064.0,223.0,-896.0,1018.0,121064.0,4.826,-22.331,-981.12,0.274,0.21
-894.0,1018.0,121064.0,223.0,-894.0,1018.0,121064.0,4.857,-22.299,-981.69,0.267,0.33
-894.0,1017.0,121065.0,223.0,-894.0,1017.0,121065.0,4.787,-22.275,-982.01,0.252,0.07
-894.0,1017.0,121065.0,223.0,-894.0,1017.0,121065.0,4.565,-22.177,-979.45,0.259,0.08
-895.0,1017.0,121066.0,223.0,-895.0,1017.0,121066.0,4.416,-22.194,-979.54,0.254,-0.11
-896.0,1017.0,121066.0,223.0,-896.0,1017.0,121066.0,4.325,-22.239,-980.07,0.255,-0.07
-896.0,1017.0,121067.0,223.0,-896.0,1017.0,121067.0,6.587,-22.199,-977.43,0.261,-0.01
-895.0,1017.0,121067.0,223.0,-895.0,1017.0,121067.0,6.68,-22.321,-979.92,0.257,0.03
-895.0,1016.0,121068.0,223.0,-895.0,1016.0,121068.0,6.273,-24.704,-980.35,0.111,0.12
-895.0,1016.0,121068.0,223.0,-895.0,1016.0,121068.0,8.886,-26.925,-977.11,0.163,-0.07
-894.0,1016.0,121069.0,223.0,-894.0,1016.0,121069.0,8.878,-26.375,-977.47,0.098,0.03
-894.0,1016.0,121069.0,223.0,-894.0,1016.0,121069.0,8.409,-26.109,-977.93,0.181,-0.09
-895.0,1017.0,121070.0,223.0,-895.0,1017.0,121070.0,8.611,-26.303,-977.74,0.333,-0.15
-895.0,1017.0,121070.0,223.0,-895.0,1017.0,121070.0,8.504,-26.289,-977.78,0.24,-0.06
-895.0,1017.0,121071.0,223.0,-895.0,1017.0,121071.0,8.51,-26.303,-977.75,0.164,-0.17
-895.0,1017.0,121071.0,223.0,-895.0,1017.0,121071.0,8.376,-26.171,-975.4,0.14,-0.1
-895.0,1017.0,121072.0,223.0,-895.0,1017.0,121072.0,8.305,-26.049,-973.04,0.065,-0.07
-896.0,1017.0,121072.0,223.0,-896.0,1017.0,121072.0,8.33,-26.022,-973.63,0.197,-0.12
-896.0,1018.0,121073.0,223.0,-896.0,1018.0,121073.0,8.41,-26.097,-976.34,0.342,-0.11
-895.0,1018.0,121073.0,223.0,-895.0,1018.0,121073.0,8.476,-26.184,-978.5,0.235,0.03
-894.0,1018.0,121074.0,223.0,-894.0,1018.0,121074.0,8.436,-26.171,-977.95,0.166,0.11
-893.0,1018.0,121074.0,223.0,-893.0,1018.0,121074.0,8.391,-26.152,-977.64,0.137,0.13
-892.0,1018.0,121075.0,223.0,-892.0,1018.0,121075.0,8.34,-26.14,-977.82,0.063,0.25
-891.0,1018.0,121075.0,223.0,-891.0,1018.0,121075.0,8.255,-26.127,-977.77,0.201,0.11
-889.0,1018.0,121076.0,223.0,-889.0,1018.0,121076.0,8.234,-26.227,-980.17,0.197,0.21
-889.0,1017.0,121076.0,223.0,-889.0,1017.0,121076.0,5.855,-23.974,-982.58,0.139,0.17
-889.0,1017.0,121077.0,223.0,-889.0,1017.0,121077.0,3.462,-21.671,-982.09,0.298,0.01
-890.0,1017.0,121077.0,223.0,-890.0,1017.0,121077.0,4.015,-22.263,-981.76,0.251,-0.04
-890.0,1018.0,121078.0,223.0,-890.0,1018.0,121078.0,4.348,-24.915,-981.87,0.455,-0.06
-891.0,1019.0,121078.0,223.0,-891.0,1019.0,121078.0,4.343,-27.094,-984.18,0.336,-0.06
-891.0,1020.0,121079.0,223.0,-891.0,1020.0,121079.0,2.239,-26.564,-986.58,0.243,0.04
-892.0,1020.0,121079.0,223.0,-892.0,1020.0,121079.0,0.053,-26.133,-986.02,0.244,0.0
-893.0,1020.0,121080.0,223.0,-893.0,1020.0,121080.0,0.784,-26.244,-985.71,0.173,-0.03
-894.0,1020.0,121080.0,223.0,-894.0,1020.0,121080.0,1.149,-28.511,-985.83,0.146,0.12
-894.0,1022.0,121081.0,223.0,-894.0,1022.0,121081.0,0.993,-30.315,-985.76,0.08,0.13
-895.0,1022.0,121082.0,223.0,-895.0,1022.0,121082.0,0.904,-27.776,-985.79,0.173,-0.07
-897.0,1023.0,121082.0,223.0,-897.0,1023.0,121082.0,0.822,-25.751,-985.85,0.332,-0.18
-899.0,1023.0,121083.0,223.0,-899.0,1023.0,121083.0,0.623,-26.277,-983.45,0.236,-0.15
-900.0,1024.0,121083.0,223.0,-900.0,1024.0,121083.0,2.869,-26.567,-981.06,0.315,-0.13
-901.0,1024.0,121084.0,223.0,-901.0,1024.0,121084.0,5.232,-26.406,-981.61,0.236,-0.06
-901.0,1024.0,121084.0,223.0,-901.0,1024.0,121084.0,4.724,-26.403,-981.93,0.218,-0.09
-902.0,1025.0,121085.0,223.0,-902.0,1025.0,121085.0,2.129,-26.271,-981.81,0.272,0.0
-902.0,1025.0,121085.0,223.0,-902.0,1025.0,121085.0,2.421,-26.208,-981.85,0.267,0.11
-901.0,1025.0,121086.0,223.0,-901.0,1025.0,121086.0,5.305,-26.169,-981.78,0.106,0.13
-900.0,1024.0,121086.0,223.0,-900.0,1024.0,121086.0,5.002,-26.146,-981.81,0.019,0.25
-901.0,1023.0,121087.0,223.0,-901.0,1023.0,121087.0,4.422,-26.158,-981.8,-0.001,-0.01
-901.0,1023.0,121087.0,223.0,-901.0,1023.0,121087.0,4.525,-26.213,-981.8,0.019,-0.01
-902.0,1023.0,121088.0,223.0,-902.0,1023.0,121088.0,4.346,-26.309,-981.81,0.26,-0.07
-903.0,1024.0,121088.0,223.0,-903.0,1024.0,121088.0,4.297,-26.42,-981.8,0.315,-0.21
-903.0,1025.0,121089.0,223.0,-903.0,1025.0,121089.0,4.274,-26.501,-981.8,0.29,0.09
-903.0,1025.0,121089.0,223.0,-903.0,1025.0,121089.0,4.371,-26.515,-981.8,0.287,-0.05
-903.0,1025.0,121090.0,223.0,-903.0,1025.0,121090.0,2.136,-24.081,-981.89,0.201,0.17
-904.0,1025.0,121090.0,223.0,-904.0,1025.0,121090.0,-0.061,-21.646,-981.98,0.239,0.08
-904.0,1025.0,121091.0,223.0,-904.0,1025.0,121091.0,0.515,-22.015,-979.57,0.282,0.09
-904.0,1024.0,121091.0,223.0,-904.0,1024.0,121091.0,0.744,-22.136,-977.22,0.26,0.2
-904.0,1024.0,121092.0,223.0,-904.0,1024.0,121092.0,0.543,-21.939,-977.82,0.252,0.15
-904.0,1024.0,121092.0,223.0,-904.0,1024.0,121092.0,0.592,-22.075,-980.51,0.255,0.23
-905.0,1024.0,121093.0,223.0,-905.0,1024.0,121093.0,0.56,-22.174,-982.68,0.25,0.02
-906.0,1023.0,121093.0,223.0,-906.0,1023.0,121093.0,0.477,-22.224,-982.13,0.112,-0.08
-907.0,1022.0,121094.0,223.0,-907.0,1022.0,121094.0,2.78,-22.283,-981.77,0.164,-0.06
-907.0,1021.0,121094.0,223.0,-907.0,1021.0,121094.0,5.044,-22.294,-979.53,0.095,-0.04
-906.0,1021.0,121095.0,223.0,-906.0,1021.0,121095.0,4.543,-22.362,-979.53,0.179,0.17
-907.0,1021.0,121095.0,223.0,-907.0,1021.0,121095.0,2.158,-22.592,-984.91,0.331,0.09
-907.0,1021.0,121096.0,223.0,-907.0,1021.0,121096.0,0.11,-22.607,-984.6,0.239,0.11
-908.0,1021.0,121096.0,223.0,-908.0,1021.0,121096.0,0.603,-22.5,-981.2,0.308,0.04
-908.0,1020.0,121097.0,223.0,-908.0,1020.0,121097.0,0.935,-22.486,-981.69,0.234,0.05
-909.0,1020.0,121097.0,223.0,-909.0,1020.0,121097.0,0.717,-22.428,-982.11,0.222,0.09
-909.0,1019.0,121098.0,223.0,-909.0,1019.0,121098.0,0.785,-22.425,-984.32,0.126,0.09
-909.0,1019.0,121099.0,223.0,-909.0,1019.0,121099.0,0.777,-24.788,-986.63,0.17,0.07
-910.0,1018.0,121099.0,223.0,-910.0,1018.0,121099.0,0.726,-24.682,-986.03,0.091,-0.06
-911.0,1018.0,121100.0,223.0,-911.0,1018.0,121100.0,0.683,-24.16,-985.77,0.181,0.12
-912.0,1019.0,121100.0,223.0,-912.0,1019.0,121100.0,0.687,-24.439,-985.91,0.327,-0.12
-913.0,1018.0,121101.0,223.0,-913.0,1018.0,121101.0,0.726,-22.098,-985.91,0.237,0.07
-913.0,1018.0,121101.0,223.0,-913.0,1018.0,121101.0,3.137,-22.238,-985.88,0.311,-0.06
-914.0,1018.0,121102.0,223.0,-914.0,1018.0,121102.0,3.129,-22.769,-985.85,0.233,-0.03
-915.0,1018.0,121102.0,223.0,-915.0,1018.0,121102.0,0.19,-22.392,-983.54,0.22,0.01
-916.0,1018.0,121103.0,223.0,-916.0,1018.0,121103.0,0.504,-22.433,-983.58,0.271,-0.02
-916.0,1018.0,121103.0,223.0,-916.0,1018.0,121103.0,1.09,-22.451,-986.49,0.264,0.11
-917.0,1017.0,121104.0,223.0,-917.0,1017.0,121104.0,0.782,-22.35,-983.83,0.249,-0.05
-918.0,1016.0,121105.0,223.0,-918.0,1016.0,121105.0,3.025,-24.621,-981.73,0.011,-0.0
-917.0,1014.0,121105.0,223.0,-917.0,1014.0,121105.0,5.331,-24.634,-981.94,-0.001,0.13
-916.0,1013.0,121106.0,223.0,-916.0,1013.0,121106.0,4.687,-21.805,-981.86,0.024,0.23
-915.0,1013.0,121106.0,223.0,-915.0,1013.0,121106.0,4.321,-24.514,-981.83,0.254,0.13
-914.0,1014.0,121107.0,223.0,-914.0,1014.0,121107.0,4.443,-27.374,-981.78,0.312,0.37
-912.0,1015.0,121107.0,223.0,-912.0,1015.0,121107.0,6.739,-26.674,-981.77,0.291,0.25
-911.0,1015.0,121108.0,223.0,-911.0,1015.0,121108.0,9.051,-24.1,-981.76,0.285,0.15
-911.0,1015.0,121108.0,223.0,-911.0,1015.0,121108.0,8.429,-21.865,-981.82,0.199,0.03
-910.0,1015.0,121109.0,223.0,-910.0,1015.0,121109.0,8.108,-24.649,-981.77,0.238,0.0
-910.0,1015.0,121109.0,223.0,-910.0,1015.0,121109.0,8.289,-27.107,-981.71,0.28,0.04
-908.0,1016.0,121110.0,223.0,-908.0,1016.0,121110.0,8.329,-26.246,-981.73,0.258,0.28
-906.0,1016.0,121110.0,223.0,-906.0,1016.0,121110.0,8.542,-26.05,-984.12,0.251,0.18
-906.0,1017.0,121110.0,223.0,-906.0,1017.0,121110.0,8.71,-26.282,-986.45,0.253,0.07
-906.0,1017.0,121111.0,223.0,-906.0,1017.0,121111.0,8.689,-26.179,-983.47,0.249,-0.08
-907.0,1018.0,121111.0,223.0,-907.0,1018.0,121111.0,6.317,-26.203,-983.27,0.256,-0.24
-907.0,1018.0,121111.0,223.0,-907.0,1018.0,121111.0,4.008,-26.253,-984.02,0.258,0.01
-907.0,1019.0,121112.0,223.0,-907.0,1019.0,121112.0,4.519,-26.237,-981.34,0.253,0.12
-906.0,1019.0,121112.0,223.0,-906.0,1019.0,121112.0,4.858,-26.282,-981.46,0.253,0.16
-906.0,1020.0,121113.0,223.0,-906.0,1020.0,121113.0,4.808,-26.409,-984.35,0.254,0.12
-906.0,1020.0,121113.0,223.0,-906.0,1020.0,121113.0,4.899,-26.5,-986.48,0.254,-0.13
-907.0,1020.0,121114.0,223.0,-907.0,1020.0,121114.0,4.8,-26.476,-985.96,0.254,-0.17
-908.0,1021.0,121114.0,223.0,-908.0,1021.0,121114.0,4.722,-26.45,-985.61,0.254,-0.14
-909.0,1021.0,121115.0,223.0,-909.0,1021.0,121115.0,4.664,-26.442,-985.82,0.253,0.0
-909.0,1022.0,121115.0,223.0,-909.0,1022.0,121115.0,4.592,-26.337,-983.37,0.254,0.03
-908.0,1022.0,121116.0,223.0,-908.0,1022.0,121116.0,4.653,-23.981,-983.47,0.254,0.19
-907.0,1022.0,121116.0,223.0,-907.0,1022.0,121116.0,4.704,-24.045,-984.0,0.254,0.16
-907.0,1022.0,121117.0,223.0,-907.0,1022.0,121117.0,4.615,-24.473,-981.38,0.254,0.05
-907.0,1022.0,121117.0,223.0,-907.0,1022.0,121117.0,4.582,-21.907,-981.54,0.254,0.13
-907.0,1022.0,121118.0,223.0,-907.0,1022.0,121118.0,4.515,-22.04,-982.06,0.254,-0.02
-908.0,1022.0,121118.0,223.0,-908.0,1022.0,121118.0,4.426,-22.548,-981.83,0.254,-0.05
-908.0,1022.0,121118.0,223.0,-908.0,1022.0,121118.0,4.372,-24.681,-981.85,0.254,0.03
-908.0,1022.0,121119.0,223.0,-908.0,1022.0,121119.0,4.378,-24.701,-981.81,0.253,0.05
-907.0,1022.0,121119.0,223.0,-907.0,1022.0,121119.0,4.45,-21.792,-981.9,0.253,0.09
-906.0,1021.0,121119.0,223.0,-906.0,1021.0,121119.0,6.897,-22.127,-981.84,0.253,0.17
-905.0,1021.0,121120.0,223.0,-905.0,1021.0,121120.0,9.279,-22.603,-981.78,0.253,0.17
-905.0,1021.0,121120.0,223.0,-905.0,1021.0,121120.0,6.431,-22.447,-984.24,0.253,-0.0
-905.0,1020.0,121121.0,223.0,-905.0,1020.0,121121.0,3.794,-22.481,-984.23,0.108,0.02
-906.0,1020.0,121121.0,223.0,-906.0,1020.0,121121.0,4.499,-22.437,-983.68,0.158,-0.09
-907.0,1019.0,121122.0,223.0,-907.0,1019.0,121122.0,4.742,-22.489,-983.91,0.094,-0.08
-907.0,1018.0,121122.0,223.0,-907.0,1018.0,121122.0,4.505,-22.407,-981.46,0.177,0.05
-907.0,1018.0,121123.0,223.0,-907.0,1018.0,121123.0,4.57,-22.445,-981.53,0.329,-0.0
-906.0,1018.0,121123.0,223.0,-906.0,1018.0,121123.0,4.643,-22.509,-982.06,0.237,0.1
-907.0,1018.0,121124.0,223.0,-907.0,1018.0,121124.0,4.69,-22.509,-981.82,0.305,-0.06
-907.0,1018.0,121124.0,223.0,-907.0,1018.0,121124.0,4.685,-22.49,-981.9,0.231,0.03
-908.0,1017.0,121125.0,223.0,-908.0,1017.0,121125.0,4.673,-22.434,-981.86,0.22,-0.09
-909.0,1017.0,121125.0,223.0,-909.0,1017.0,121125.0,4.644,-22.367,-981.89,0.269,-0.15
-909.0,1017.0,121126.0,223.0,-909.0,1017.0,121126.0,4.612,-22.31,-981.88,0.262,-0.07
-910.0,1017.0,121126.0,223.0,-910.0,1017.0,121126.0,4.605,-22.277,-981.87,0.247,-0.17
-910.0,1017.0,121126.0,223.0,-910.0,1017.0,121126.0,4.621,-22.269,-981.88,0.255,0.04
-910.0,1016.0,121127.0,223.0,-910.0,1016.0,121127.0,4.65,-22.28,-981.88,0.104,0.15
-909.0,1015.0,121127.0,223.0,-909.0,1015.0,121127.0,4.671,-22.307,-981.88,0.156,0.25
-908.0,1015.0,121127.0,223.0,-908.0,1015.0,121127.0,4.657,-22.348,-981.88,0.243,0.2
-908.0,1015.0,121128.0,223.0,-908.0,1015.0,121128.0,2.2,-24.725,-981.88,0.272,0.18
-909.0,1017.0,121128.0,223.0,-909.0,1017.0,121128.0,-0.248,-27.049,-981.88,0.485,-0.01
-910.0,1018.0,121129.0,223.0,-910.0,1018.0,121129.0,2.593,-26.527,-981.83,0.312,-0.06
-910.0,1017.0,121129.0,223.0,-910.0,1017.0,121129.0,5.058,-26.147,-979.4,0.084,-0.05
-910.0,1017.0,121130.0,223.0,-910.0,1017.0,121130.0,4.3,-26.25,-979.46,0.152,-0.04
-910.0,1017.0,121130.0,223.0,-910.0,1017.0,121130.0,4.215,-26.246,-982.39,0.008,0.17
-910.0,1017.0,121131.0,223.0,-910.0,1017.0,121131.0,4.496,-26.22,-982.11,0.214,0.09
-909.0,1018.0,121131.0,223.0,-909.0,1018.0,121131.0,4.587,-26.212,-981.63,0.37,0.25
-908.0,1018.0,121132.0,223.0,-908.0,1018.0,121132.0,4.689,-23.953,-981.89,0.215,0.14
-907.0,1017.0,121132.0,223.0,-907.0,1017.0,121132.0,4.7,-21.713,-981.88,0.152,0.2
-906.0,1016.0,121133.0,223.0,-906.0,1016.0,121133.0,4.667,-22.31,-981.9,0.138,0.3
-906.0,1015.0,121133.0,223.0,-906.0,1015.0,121133.0,2.196,-22.578,-981.91,0.056,0.1
-905.0,1015.0,121134.0,223.0,-905.0,1015.0,121134.0,2.15,-22.389,-981.93,0.199,0.24
-906.0,1015.0,121134.0,223.0,-906.0,1015.0,121134.0,4.978,-22.448,-981.87,0.339,-0.03
-906.0,1015.0,121135.0,223.0,-906.0,1015.0,121135.0,4.653,-22.436,-981.87,0.225,-0.06
-906.0,1014.0,121136.0,223.0,-906.0,1014.0,121136.0,4.193,-22.443,-981.88,0.162,0.11
-907.0,1013.0,121136.0,223.0,-907.0,1013.0,121136.0,4.402,-22.318,-979.49,0.133,-0.1
-906.0,1012.0,121137.0,223.0,-906.0,1012.0,121137.0,4.455,-24.631,-979.5,-0.087,0.22
-906.0,1011.0,121137.0,223.0,-906.0,1011.0,121137.0,4.693,-27.012,-982.38,-0.043,0.01
-907.0,1011.0,121138.0,223.0,-907.0,1011.0,121138.0,4.748,-26.434,-982.11,0.083,-0.03
-907.0,1010.0,121138.0,223.0,-907.0,1010.0,121138.0,4.79,-26.176,-981.64,-0.006,0.0
-908.0,1010.0,121139.0,223.0,-908.0,1010.0,121139.0,4.787,-26.436,-981.85,0.307,-0.24
-908.0,1011.0,121139.0,223.0,-908.0,1011.0,121139.0,4.744,-26.463,-981.79,0.286,0.05
-908.0,1012.0,121140.0,223.0,-908.0,1012.0,121140.0,4.717,-26.497,-981.82,0.253,-0.03
-908.0,1012.0,121140.0,223.0,-908.0,1012.0,121140.0,4.694,-26.431,-981.79,0.303,0.04
-909.0,1013.0,121141.0,223.0,-909.0,1013.0,121141.0,4.674,-26.336,-981.81,0.206,-0.01
-910.0,1013.0,121141.0,223.0,-910.0,1013.0,121141.0,4.657,-23.851,-981.85,0.228,-0.19
-910.0,1012.0,121142.0,223.0,-910.0,1012.0,121142.0,4.629,-21.433,-981.89,0.28,0.02
-911.0,1012.0,121142.0,223.0,-911.0,1012.0,121142.0,4.59,-21.94,-981.88,0.253,-0.06
-910.0,1012.0,121143.0,223.0,-910.0,1012.0,121143.0,4.571,-22.221,-981.88,0.246,0.06
-911.0,1012.0,121143.0,223.0,-911.0,1012.0,121143.0,2.193,-22.06,-981.92,0.255,-0.0
-913.0,1011.0,121144.0,223.0,-913.0,1011.0,121144.0,-0.133,-22.142,-981.97,0.246,-0.2
-914.0,1011.0,121144.0,223.0,-914.0,1011.0,121144.0,0.443,-22.211,-981.96,0.252,-0.1
-916.0,1011.0,121145.0,223.0,-916.0,1011.0,121145.0,3.119,-22.327,-981.91,0.256,-0.16
-916.0,1011.0,121145.0,223.0,-916.0,1011.0,121145.0,5.289,-22.394,-981.87,0.25,-0.09
-917.0,1011.0,121146.0,223.0,-917.0,1011.0,121146.0,4.785,-22.433,-981.88,0.25,-0.07
-918.0,1011.0,121146.0,223.0,-918.0,1011.0,121146.0,4.514,-22.454,-981.88,0.252,-0.12
-919.0,1011.0,121147.0,223.0,-919.0,1011.0,121147.0,4.718,-24.8,-981.83,0.251,-0.12
-919.0,1011.0,121147.0,223.0,-919.0,1011.0,121147.0,4.657,-27.082,-981.79,0.251,0.03
-919.0,1012.0,121148.0,223.0,-919.0,1012.0,121148.0,4.662,-26.486,-981.8,0.251,-0.02
-919.0,1012.0,121148.0,223.0,-919.0,1012.0,121148.0,4.618,-26.165,-981.81,0.251,0.04
-919.0,1012.0,121149.0,223.0,-919.0,1012.0,121149.0,4.497,-26.228,-979.41,0.106,-0.03
-920.0,1012.0,121149.0,223.0,-920.0,1012.0,121149.0,4.353,-26.089,-977.08,0.156,-0.19
-920.0,1012.0,121150.0,223.0,-920.0,1012.0,121150.0,6.682,-26.146,-977.62,0.092,0.04
-919.0,1012.0,121150.0,223.0,-919.0,1012.0,121150.0,8.969,-28.53,-977.84,0.175,0.06
-918.0,1014.0,121151.0,223.0,-918.0,1014.0,121151.0,5.99,-30.843,-977.68,0.326,0.15
-918.0,1015.0,121151.0,223.0,-918.0,1015.0,121151.0,3.386,-30.28,-977.79,0.235,0.14
-919.0,1016.0,121152.0,223.0,-919.0,1016.0,121152.0,4.164,-27.656,-977.81,0.303,-0.12
-919.0,1016.0,121152.0,223.0,-919.0,1016.0,121152.0,4.493,-27.95,-980.21,0.229,-0.04
-920.0,1017.0,121153.0,223.0,-920.0,1017.0,121153.0,4.398,-28.462,-982.53,0.218,-0.05
-920.0,1017.0,121153.0,223.0,-920.0,1017.0,121153.0,4.433,-25.815,-981.99,0.267,0.0
-920.0,1018.0,121154.0,223.0,-920.0,1018.0,121154.0,4.474,-25.841,-981.68,0.26,0.01
-921.0,1018.0,121154.0,223.0,-921.0,1018.0,121154.0,4.553,-26.338,-981.84,0.246,-0.16
-921.0,1019.0,121154.0,223.0,-921.0,1019.0,121154.0,4.592,-26.105,-981.8,0.398,0.01
-922.0,1020.0,121155.0,223.0,-922.0,1020.0,121155.0,4.64,-26.181,-981.81,0.342,-0.07
-921.0,1022.0,121156.0,223.0,-921.0,1022.0,121156.0,4.668,-26.156,-981.79,0.407,0.2
-921.0,1022.0,121156.0,223.0,-921.0,1022.0,121156.0,4.605,-23.762,-979.46,0.33,0.08
-921.0,1021.0,121157.0,223.0,-921.0,1021.0,121157.0,4.517,-21.364,-977.17,0.175,-0.04
-922.0,1021.0,121157.0,223.0,-922.0,1021.0,121157.0,4.474,-21.948,-977.74,0.265,-0.03
-922.0,1021.0,121158.0,223.0,-922.0,1021.0,121158.0,4.408,-22.273,-978.05,0.198,-0.09
-922.0,1020.0,121158.0,223.0,-922.0,1020.0,121158.0,6.724,-22.149,-977.84,0.272,0.01
-921.0,1020.0,121159.0,223.0,-921.0,1020.0,121159.0,6.658,-22.251,-977.88,0.284,0.16
-921.0,1020.0,121159.0,223.0,-921.0,1020.0,121159.0,3.774,-22.277,-977.93,0.235,0.05
-921.0,1021.0,121160.0,223.0,-921.0,1021.0,121160.0,4.165,-22.434,-980.33,0.385,0.12
-921.0,1021.0,121160.0,223.0,-921.0,1021.0,121160.0,4.729,-22.532,-982.64,0.35,0.05
-921.0,1022.0,121161.0,223.0,-921.0,1022.0,121161.0,4.49,-22.503,-982.06,0.407,0.04
-920.0,1022.0,121161.0,223.0,-920.0,1022.0,121161.0,4.514,-22.455,-981.75,0.329,0.09
-921.0,1021.0,121162.0,223.0,-921.0,1021.0,121162.0,4.476,-22.392,-981.92,0.177,-0.05
-921.0,1020.0,121162.0,223.0,-921.0,1020.0,121162.0,4.503,-22.324,-981.88,0.118,0.12
-921.0,1019.0,121163.0,223.0,-921.0,1019.0,121163.0,4.5,-22.282,-981.89,0.103,-0.12
-921.0,1019.0,121163.0,223.0,-921.0,1019.0,121163.0,4.515,-24.637,-981.82,0.114,0.06
-921.0,1018.0,121164.0,223.0,-921.0,1018.0,121164.0,4.549,-26.996,-981.79,0.062,0.07
-921.0,1019.0,121164.0,223.0,-921.0,1019.0,121164.0,4.589,-26.519,-981.8,0.214,0.06
-921.0,1018.0,121165.0,223.0,-921.0,1018.0,121165.0,2.327,-26.387,-984.24,0.065,0.16
-921.0,1019.0,121165.0,223.0,-921.0,1019.0,121165.0,2.384,-26.63,-984.18,0.231,0.05
-921.0,1019.0,121166.0,223.0,-921.0,1019.0,121166.0,5.169,-26.537,-981.2,0.302,0.03
-922.0,1020.0,121166.0,223.0,-922.0,1020.0,121166.0,2.559,-26.596,-983.92,0.204,-0.04
-922.0,1020.0,121167.0,223.0,-922.0,1020.0,121167.0,2.189,-26.605,-986.74,0.32,-0.01
-923.0,1020.0,121167.0,223.0,-923.0,1020.0,121167.0,2.885,-26.489,-985.93,0.089,-0.07
-925.0,1020.0,121168.0,223.0,-925.0,1020.0,121168.0,0.232,-26.336,-985.72,0.116,-0.12
-925.0,1020.0,121168.0,223.0,-925.0,1020.0,121168.0,2.79,-26.27,-985.82,0.111,0.05
-925.0,1020.0,121169.0,223.0,-925.0,1020.0,121169.0,5.574,-26.173,-983.36,0.18,-0.09
-925.0,1020.0,121169.0,223.0,-925.0,1020.0,121169.0,4.775,-23.753,-981.08,0.318,0.05
-925.0,1019.0,121170.0,223.0,-925.0,1019.0,121170.0,2.314,-21.601,-984.14,0.094,0.13
-926.0,1018.0,121170.0,223.0,-926.0,1018.0,121170.0,0.119,-22.231,-984.44,0.203,0.03
-926.0,1018.0,121171.0,223.0,-926.0,1018.0,121171.0,0.545,-24.814,-981.28,0.066,0.14
-926.0,1018.0,121171.0,223.0,-926.0,1018.0,121171.0,3.149,-27.001,-981.51,0.145,0.06
-926.0,1019.0,121172.0,223.0,-926.0,1019.0,121172.0,2.839,-26.496,-981.99,0.341,0.04
-926.0,1019.0,121172.0,223.0,-926.0,1019.0,121172.0,2.295,-26.184,-981.81,0.241,0.09
-926.0,1019.0,121173.0,223.0,-926.0,1019.0,121173.0,2.469,-24.022,-981.89,0.297,0.08
-926.0,1019.0,121173.0,223.0,-926.0,1019.0,121173.0,2.425,-21.64,-981.91,0.23,0.07
-927.0,1018.0,121174.0,223.0,-927.0,1018.0,121174.0,4.805,-24.548,-981.85,0.068,-0.05
-928.0,1018.0,121174.0,223.0,-928.0,1018.0,121174.0,4.692,-26.984,-979.39,0.169,-0.15
-928.0,1018.0,121175.0,223.0,-928.0,1018.0,121175.0,4.135,-26.129,-977.07,0.104,-0.03
-929.0,1018.0,121175.0,223.0,-929.0,1018.0,121175.0,4.498,-23.557,-977.72,0.168,-0.05
-928.0,1018.0,121176.0,223.0,-928.0,1018.0,121176.0,4.6,-21.561,-980.45,0.326,0.23
-927.0,1017.0,121176.0,223.0,-927.0,1017.0,121176.0,4.784,-22.256,-982.61,0.23,0.2
-927.0,1017.0,121177.0,223.0,-927.0,1017.0,121177.0,4.682,-22.491,-979.67,0.299,0.04
-926.0,1018.0,121177.0,223.0,-926.0,1018.0,121177.0,4.547,-24.569,-976.97,0.231,0.12
-927.0,1018.0,121178.0,223.0,-927.0,1018.0,121178.0,4.469,-26.925,-977.7,0.216,-0.16
-928.0,1018.0,121178.0,223.0,-928.0,1018.0,121178.0,4.366,-26.293,-977.96,0.264,-0.14
-928.0,1019.0,121179.0,223.0,-928.0,1019.0,121179.0,4.378,-26.043,-980.2,0.259,0.02
-929.0,1019.0,121179.0,223.0,-929.0,1019.0,121179.0,6.75,-26.191,-980.13,0.099,-0.07
-927.0,1019.0,121180.0,223.0,-927.0,1019.0,121180.0,9.032,-26.055,-977.16,0.156,0.22
-926.0,1018.0,121180.0,223.0,-926.0,1018.0,121180.0,8.536,-26.089,-977.47,0.087,0.07
-925.0,1017.0,121181.0,223.0,-925.0,1017.0,121181.0,8.302,-26.122,-977.94,0.026,0.08
-925.0,1018.0,121181.0,223.0,-925.0,1018.0,121181.0,8.471,-26.194,-977.73,0.233,0.06
-925.0,1017.0,121182.0,223.0,-925.0,1017.0,121182.0,8.393,-26.264,-977.78,0.074,-0.07
-923.0,1017.0,121182.0,223.0,-923.0,1017.0,121182.0,8.36,-23.973,-977.8,0.079,0.13
-924.0,1016.0,121183.0,223.0,-924.0,1016.0,121183.0,8.299,-24.063,-977.83,0.208,-0.1
-923.0,1016.0,121183.0,223.0,-923.0,1016.0,121183.0,8.278,-26.931,-977.76,0.04,0.06
-922.0,1016.0,121184.0,223.0,-922.0,1016.0,121184.0,5.99,-26.691,-980.2,0.241,0.06
-923.0,1017.0,121184.0,223.0,-923.0,1017.0,121184.0,3.695,-26.155,-980.2,0.313,-0.08
-923.0,1017.0,121185.0,223.0,-923.0,1017.0,121185.0,4.219,-26.206,-977.26,0.194,0.07
-924.0,1018.0,121185.0,223.0,-924.0,1018.0,121185.0,4.64,-26.185,-979.93,0.319,-0.09
-925.0,1018.0,121186.0,223.0,-925.0,1018.0,121186.0,4.585,-26.238,-982.74,0.234,-0.17
-925.0,1019.0,121186.0,223.0,-925.0,1019.0,121186.0,4.62,-26.109,-981.94,0.208,0.07
-925.0,1019.0,121187.0,223.0,-925.0,1019.0,121187.0,4.62,-26.069,-981.69,0.271,0.05
-924.0,1020.0,121187.0,223.0,-924.0,1020.0,121187.0,4.66,-26.06,-981.83,0.255,0.14
-923.0,1020.0,121188.0,223.0,-923.0,1020.0,121188.0,4.563,-25.983,-979.43,0.24,0.15
-924.0,1020.0,121188.0,223.0,-924.0,1020.0,121188.0,4.451,-25.944,-977.08,0.255,-0.13
-925.0,1021.0,121189.0,223.0,-925.0,1021.0,121189.0,4.406,-26.016,-977.65,0.245,-0.17
-926.0,1021.0,121189.0,223.0,-926.0,1021.0,121189.0,4.347,-26.08,-977.98,0.245,-0.14
-927.0,1022.0,121190.0,223.0,-927.0,1022.0,121190.0,4.318,-26.118,-977.8,0.253,-0.01
-926.0,1022.0,121190.0,223.0,-926.0,1022.0,121190.0,4.342,-28.496,-977.8,0.248,0.17
-925.0,1023.0,121191.0,223.0,-925.0,1023.0,121191.0,4.41,-28.461,-977.8,0.247,0.15
-925.0,1023.0,121191.0,223.0,-925.0,1023.0,121191.0,4.482,-25.595,-977.87,0.249,0.08
-925.0,1024.0,121192.0,223.0,-925.0,1024.0,121192.0,4.562,-25.953,-980.24,0.248,0.02
-926.0,1024.0,121192.0,223.0,-926.0,1024.0,121192.0,4.589,-26.495,-982.57,0.248,-0.07
-926.0,1024.0,121193.0,223.0,-926.0,1024.0,121193.0,4.519,-23.905,-982.03,0.249,0.0
-926.0,1024.0,121193.0,223.0,-926.0,1024.0,121193.0,4.475,-21.642,-981.77,0.248,-0.06
-927.0,1023.0,121193.0,223.0,-927.0,1023.0,121193.0,4.471,-22.191,-981.93,0.103,-0.13
-927.0,1022.0,121193.0,223.0,-927.0,1022.0,121193.0,4.501,-22.519,-981.88,0.153,0.05
-928.0,1021.0,121194.0,223.0,-928.0,1021.0,121194.0,4.563,-22.344,-981.89,0.089,-0.09
-927.0,1021.0,121194.0,223.0,-927.0,1021.0,121194.0,7.002,-22.434,-981.82,0.172,0.19
-926.0,1021.0,121195.0,223.0,-926.0,1021.0,121195.0,6.997,-22.472,-981.84,0.323,0.08
-927.0,1021.0,121195.0,223.0,-927.0,1021.0,121195.0,4.1,-22.498,-981.89,0.231,-0.04
-926.0,1021.0,121196.0,223.0,-926.0,1021.0,121196.0,4.345,-22.505,-981.88,0.3,0.11
-926.0,1020.0,121196.0,223.0,-926.0,1020.0,121196.0,4.755,-22.492,-981.88,0.226,-0.0
-925.0,1020.0,121196.0,223.0,-925.0,1020.0,121196.0,4.48,-22.439,-981.88,0.214,0.3
-924.0,1020.0,121196.0,223.0,-924.0,1020.0,121196.0,4.485,-22.369,-981.88,0.264,0.19
-924.0,1020.0,121197.0,223.0,-924.0,1020.0,121197.0,4.421,-22.313,-981.88,0.257,0.04
-925.0,1019.0,121197.0,223.0,-925.0,1019.0,121197.0,4.419,-22.279,-981.88,0.242,-0.07
-926.0,1019.0,121198.0,223.0,-926.0,1019.0,121198.0,4.379,-22.27,-981.88,0.25,-0.23
-927.0,1019.0,121198.0,223.0,-927.0,1019.0,121198.0,2.02,-22.259,-981.92,0.244,0.0
-927.0,1019.0,121199.0,223.0,-927.0,1019.0,121199.0,2.157,-22.283,-981.92,0.245,-0.01
-926.0,1019.0,121199.0,223.0,-926.0,1019.0,121199.0,5.178,-22.341,-981.87,0.251,0.21
-925.0,1018.0,121199.0,223.0,-925.0,1018.0,121199.0,2.235,-22.368,-981.93,0.246,0.18
-925.0,1018.0,121200.0,223.0,-925.0,1018.0,121200.0,2.483,-22.387,-981.92,0.248,0.21
-925.0,1018.0,121200.0,223.0,-925.0,1018.0,121200.0,2.936,-24.832,-984.26,0.247,-0.0
-926.0,1019.0,121201.0,223.0,-926.0,1019.0,121201.0,0.3,-27.186,-986.6,0.247,-0.07
-927.0,1018.0,121201.0,223.0,-927.0,1018.0,121201.0,0.175,-26.495,-983.63,0.103,-0.04
-928.0,1018.0,121202.0,223.0,-928.0,1018.0,121202.0,0.574,-26.097,-980.98,0.152,0.08
-927.0,1018.0,121202.0,223.0,-927.0,1018.0,121202.0,0.403,-26.291,-981.74,0.088,0.26
-927.0,1018.0,121202.0,223.0,-927.0,1018.0,121202.0,0.461,-28.534,-979.57,0.026,0.24
-927.0,1018.0,121202.0,223.0,-927.0,1018.0,121202.0,2.791,-28.456,-977.03,0.228,0.18
-926.0,1018.0,121203.0,223.0,-926.0,1018.0,121203.0,5.212,-25.655,-977.66,0.072,0.11
-925.0,1018.0,121203.0,223.0,-925.0,1018.0,121203.0,4.6,-25.99,-977.97,0.224,0.15
-925.0,1019.0,121204.0,223.0,-925.0,1019.0,121204.0,4.237,-26.462,-977.82,0.301,0.19
-924.0,1019.0,121205.0,223.0,-924.0,1019.0,121205.0,4.374,-26.234,-977.84,0.197,0.18
-924.0,1020.0,121205.0,223.0,-924.0,1020.0,121205.0,4.38,-26.325,-980.23,0.316,0.03
-925.0,1020.0,121205.0,223.0,-925.0,1020.0,121205.0,4.466,-26.304,-982.58,0.235,-0.06
-924.0,1020.0,121205.0,223.0,-924.0,1020.0,121205.0,4.451,-26.226,-981.98,0.208,0.06
-925.0,1021.0,121205.0,223.0,-925.0,1021.0,121205.0,4.508,-26.124,-981.67,0.265,-0.09
-925.0,1021.0,121206.0,223.0,-925.0,1021.0,121206.0,4.526,-23.651,-979.5,0.253,0.09
-925.0,1021.0,121206.0,223.0,-925.0,1021.0,121206.0,4.532,-23.617,-977.12,0.24,-0.08
-927.0,1021.0,121207.0,223.0,-927.0,1021.0,121207.0,4.612,-26.527,-977.66,0.253,-0.18
-927.0,1021.0,121207.0,223.0,-927.0,1021.0,121207.0,7.052,-23.98,-977.96,0.243,-0.07
-927.0,1021.0,121208.0,223.0,-927.0,1021.0,121208.0,9.386,-23.632,-977.77,0.243,-0.17
-927.0,1022.0,121208.0,223.0,-927.0,1022.0,121208.0,8.799,-24.41,-977.81,0.251,-0.09
-927.0,1021.0,121209.0,223.0,-927.0,1021.0,121209.0,10.873,-21.844,-977.81,0.246,-0.07
-926.0,1021.0,121209.0,223.0,-926.0,1021.0,121209.0,13.34,-22.032,-977.78,0.245,-0.13
-925.0,1021.0,121210.0,223.0,-925.0,1021.0,121210.0,12.75,-22.604,-980.15,0.247,0.01
-923.0,1021.0,121210.0,223.0,-923.0,1021.0,121210.0,10.108,-22.461,-982.55,0.246,0.12
-922.0,1020.0,121211.0,223.0,-922.0,1020.0,121211.0,7.774,-22.397,-979.61,0.246,0.26
-920.0,1020.0,121211.0,223.0,-920.0,1020.0,121211.0,10.533,-22.267,-976.91,0.247,0.2
-919.0,1020.0,121212.0,223.0,-919.0,1020.0,121212.0,13.083,-22.346,-977.62,0.246,0.04
-918.0,1020.0,121212.0,223.0,-918.0,1020.0,121212.0,9.821,-22.301,-977.94,0.246,-0.1
-919.0,1019.0,121213.0,223.0,-919.0,1019.0,121213.0,7.154,-22.259,-977.83,0.246,-0.08
-918.0,1019.0,121213.0,223.0,-918.0,1019.0,121213.0,7.864,-22.272,-977.84,0.246,0.1
-917.0,1019.0,121214.0,223.0,-917.0,1019.0,121214.0,8.196,-22.27,-977.84,0.246,0.13
-916.0,1019.0,121214.0,223.0,-916.0,1019.0,121214.0,8.146,-22.271,-977.86,0.246,0.15
-915.0,1018.0,121215.0,223.0,-915.0,1018.0,121215.0,8.298,-22.275,-977.84,0.101,0.03
-916.0,1017.0,121216.0,223.0,-916.0,1017.0,121216.0,6.02,-22.258,-977.89,0.151,-0.1
-916.0,1016.0,121216.0,223.0,-916.0,1016.0,121216.0,3.755,-22.25,-977.94,0.087,-0.0
-916.0,1016.0,121217.0,223.0,-916.0,1016.0,121217.0,4.341,-22.282,-977.93,0.17,-0.06
-917.0,1016.0,121217.0,223.0,-917.0,1016.0,121217.0,4.666,-22.324,-977.92,0.321,-0.13
-917.0,1015.0,121218.0,223.0,-917.0,1015.0,121218.0,4.517,-22.359,-977.92,0.229,0.06
-917.0,1016.0,121218.0,223.0,-917.0,1016.0,121218.0,4.655,-22.46,-980.31,0.298,0.04
-917.0,1015.0,121219.0,223.0,-917.0,1015.0,121219.0,4.735,-22.52,-982.65,0.224,0.14
-915.0,1015.0,121219.0,223.0,-915.0,1015.0,121219.0,4.641,-22.355,-979.67,0.212,0.28
-916.0,1015.0,121220.0,223.0,-916.0,1015.0,121220.0,4.568,-22.277,-979.42,0.262,-0.03
-916.0,1014.0,121220.0,223.0,-916.0,1014.0,121220.0,4.587,-22.332,-982.51,0.11,-0.02
-917.0,1013.0,121220.0,223.0,-917.0,1013.0,121220.0,4.482,-22.288,-982.18,0.145,-0.07
-917.0,1012.0,121220.0,223.0,-917.0,1012.0,121220.0,4.396,-22.273,-981.72,0.089,-0.08
-917.0,1011.0,121221.0,223.0,-917.0,1011.0,121221.0,4.32,-22.23,-979.52,0.166,0.19
-916.0,1012.0,121221.0,223.0,-916.0,1012.0,121221.0,4.374,-22.293,-979.54,0.319,0.1
-915.0,1011.0,121222.0,223.0,-915.0,1011.0,121222.0,4.548,-22.469,-982.49,0.233,0.24
-916.0,1011.0,121222.0,223.0,-916.0,1011.0,121222.0,4.593,-22.502,-982.17,0.298,0.0
-916.0,1011.0,121223.0,223.0,-916.0,1011.0,121223.0,4.59,-22.487,-981.71,0.222,-0.03
-916.0,1011.0,121223.0,223.0,-916.0,1011.0,121223.0,4.574,-22.456,-981.93,0.212,0.05
-917.0,1011.0,121224.0,223.0,-917.0,1011.0,121224.0,4.531,-24.74,-981.82,0.261,-0.11
-916.0,1012.0,121224.0,223.0,-916.0,1012.0,121224.0,4.514,-26.977,-981.81,0.255,0.1
-916.0,1012.0,121225.0,223.0,-916.0,1012.0,121225.0,6.911,-26.381,-981.74,0.24,0.06
-915.0,1013.0,121225.0,223.0,-915.0,1013.0,121225.0,9.19,-25.999,-979.33,0.247,0.04
-913.0,1013.0,121226.0,223.0,-913.0,1013.0,121226.0,8.635,-26.165,-979.39,0.242,0.31
-912.0,1013.0,121226.0,223.0,-912.0,1013.0,121226.0,8.433,-26.243,-982.32,0.243,0.14
-911.0,1014.0,121227.0,223.0,-911.0,1014.0,121227.0,8.565,-26.27,-982.04,0.249,0.05
-911.0,1014.0,121227.0,223.0,-911.0,1014.0,121227.0,8.461,-23.917,-981.61,0.245,-0.05
-912.0,1013.0,121227.0,223.0,-912.0,1013.0,121227.0,8.428,-21.672,-981.86,0.243,-0.24
-911.0,1013.0,121228.0,223.0,-911.0,1013.0,121228.0,8.376,-22.263,-981.8,0.245,0.0
-911.0,1013.0,121228.0,223.0,-911.0,1013.0,121228.0,8.421,-22.572,-981.82,0.245,-0.01
-911.0,1013.0,121228.0,223.0,-911.0,1013.0,121228.0,6.131,-22.389,-981.84,0.245,0.07
-910.0,1013.0,121229.0,223.0,-910.0,1013.0,121229.0,6.281,-22.429,-981.85,0.245,0.11
-909.0,1013.0,121229.0,223.0,-909.0,1013.0,121229.0,9.166,-24.698,-979.36,0.244,0.02
-909.0,1013.0,121230.0,223.0,-909.0,1013.0,121230.0,6.509,-26.979,-979.41,0.244,0.13
-909.0,1014.0,121230.0,223.0,-909.0,1014.0,121230.0,3.692,-26.372,-980.02,0.245,0.06
-909.0,1014.0,121230.0,223.0,-909.0,1014.0,121230.0,4.328,-25.981,-977.39,0.245,-0.08
-910.0,1015.0,121230.0,223.0,-910.0,1015.0,121230.0,4.497,-26.154,-977.49,0.389,-0.13
-911.0,1016.0,121231.0,223.0,-911.0,1016.0,121231.0,4.314,-26.122,-978.02,0.339,-0.16
-912.0,1017.0,121231.0,223.0,-912.0,1017.0,121231.0,4.309,-26.116,-977.79,0.403,-0.01
-911.0,1018.0,121232.0,223.0,-911.0,1018.0,121232.0,4.367,-26.078,-977.87,0.32,0.17
-910.0,1018.0,121232.0,223.0,-910.0,1018.0,121232.0,2.087,-26.033,-977.87,0.169,0.28
-910.0,1019.0,121233.0,223.0,-910.0,1019.0,121233.0,2.178,-25.997,-977.9,0.261,0.18
-909.0,1019.0,121233.0,223.0,-909.0,1019.0,121233.0,5.086,-26.008,-977.84,0.192,0.17
-910.0,1019.0,121234.0,223.0,-910.0,1019.0,121234.0,4.732,-26.033,-977.84,0.266,-0.0
-910.0,1019.0,121234.0,223.0,-910.0,1019.0,121234.0,4.159,-23.738,-977.9,0.277,0.07
-910.0,1019.0,121235.0,223.0,-910.0,1019.0,121235.0,4.294,-21.515,-977.94,0.228,0.04
-910.0,1019.0,121235.0,223.0,-910.0,1019.0,121235.0,4.201,-22.15,-977.93,0.235,-0.03
-910.0,1019.0,121236.0,223.0,-910.0,1019.0,121236.0,4.253,-22.484,-977.92,0.249,0.14
-910.0,1018.0,121236.0,223.0,-910.0,1018.0,121236.0,4.296,-22.324,-977.92,0.242,0.0
-909.0,1018.0,121237.0,223.0,-909.0,1018.0,121237.0,4.406,-22.356,-977.92,0.247,0.14
-909.0,1018.0,121237.0,223.0,-909.0,1018.0,121237.0,4.476,-24.667,-977.88,0.246,0.08
-910.0,1019.0,121238.0,223.0,-910.0,1019.0,121238.0,4.585,-27.032,-980.22,0.24,-0.1
-911.0,1019.0,121238.0,223.0,-911.0,1019.0,121238.0,6.982,-26.429,-980.13,0.244,-0.14
-910.0,1020.0,121239.0,223.0,-910.0,1020.0,121239.0,9.202,-26.021,-977.17,0.245,-0.01
-910.0,1020.0,121239.0,223.0,-910.0,1020.0,121239.0,8.626,-26.179,-977.46,0.243,-0.06
-909.0,1021.0,121239.0,223.0,-909.0,1021.0,121239.0,8.367,-23.793,-977.99,0.389,0.09
-909.0,1021.0,121240.0,223.0,-909.0,1021.0,121240.0,8.56,-21.504,-977.82,0.339,-0.02
-909.0,1021.0,121240.0,223.0,-909.0,1021.0,121240.0,8.515,-22.061,-977.86,0.402,-0.21
-910.0,1022.0,121240.0,223.0,-910.0,1022.0,121240.0,8.499,-22.359,-977.83,0.32,-0.1
-911.0,1021.0,121240.0,223.0,-911.0,1021.0,121240.0,8.45,-22.161,-977.86,0.168,-0.3
-911.0,1021.0,121240.0,223.0,-911.0,1021.0,121240.0,8.447,-22.171,-977.85,0.26,-0.18
-912.0,1020.0,121241.0,223.0,-912.0,1020.0,121241.0,6.082,-22.134,-977.89,0.191,-0.08
-913.0,1020.0,121241.0,223.0,-913.0,1020.0,121241.0,3.794,-22.155,-977.94,0.265,-0.11
-912.0,1020.0,121241.0,223.0,-912.0,1020.0,121241.0,4.419,-22.202,-977.93,0.277,0.23
-911.0,1020.0,121242.0,223.0,-911.0,1020.0,121242.0,7.104,-22.297,-977.88,0.227,0.04
-910.0,1019.0,121243.0,223.0,-910.0,1019.0,121243.0,9.21,-22.375,-977.84,0.234,0.15
-909.0,1019.0,121243.0,223.0,-909.0,1019.0,121243.0,8.566,-22.397,-977.85,0.249,0.04
-910.0,1019.0,121243.0,223.0,-910.0,1019.0,121243.0,5.729,-24.725,-977.85,0.241,-0.11
-910.0,1020.0,121244.0,223.0,-910.0,1020.0,121244.0,3.46,-26.985,-977.85,0.246,0.0
-911.0,1020.0,121245.0,223.0,-911.0,1020.0,121245.0,3.922,-26.385,-977.85,0.245,-0.05
-911.0,1021.0,121245.0,223.0,-911.0,1021.0,121245.0,6.622,-26.077,-977.8,0.239,-0.0
-910.0,1021.0,121246.0,223.0,-910.0,1021.0,121246.0,8.831,-26.233,-977.76,0.243,0.01
-910.0,1022.0,121246.0,223.0,-910.0,1022.0,121246.0,8.406,-26.16,-977.77,0.245,-0.03
-910.0,1022.0,121247.0,223.0,-910.0,1022.0,121247.0,8.196,-26.151,-977.77,0.243,-0.02
-910.0,1022.0,121247.0,223.0,-910.0,1022.0,121247.0,6.167,-26.192,-980.21,0.243,-0.01
-910.0,1023.0,121248.0,223.0,-910.0,1023.0,121248.0,6.294,-26.291,-982.54,0.243,-0.02
-909.0,1023.0,121248.0,223.0,-909.0,1023.0,121248.0,9.132,-26.213,-979.51,0.243,0.12
-908.0,1023.0,121249.0,223.0,-908.0,1023.0,121249.0,8.818,-26.205,-979.26,0.243,0.07
-906.0,1024.0,121249.0,223.0,-906.0,1024.0,121249.0,8.499,-26.412,-984.75,0.243,0.27
-905.0,1025.0,121250.0,223.0,-905.0,1025.0,121250.0,6.353,-24.125,-986.85,0.388,0.14
-905.0,1025.0,121250.0,223.0,-905.0,1025.0,121250.0,3.87,-21.775,-985.88,0.338,0.2
-905.0,1025.0,121251.0,223.0,-905.0,1025.0,121251.0,4.389,-22.348,-985.75,0.402,0.02
-905.0,1025.0,121251.0,223.0,-905.0,1025.0,121251.0,2.212,-22.609,-985.91,0.319,0.06
-906.0,1025.0,121252.0,223.0,-906.0,1025.0,121252.0,-0.297,-22.38,-985.94,0.167,0.02
-907.0,1025.0,121252.0,223.0,-907.0,1025.0,121252.0,0.351,-22.39,-985.9,0.259,-0.03
-908.0,1024.0,121253.0,223.0,-908.0,1024.0,121253.0,0.711,-22.367,-985.9,0.19,0.01
-909.0,1024.0,121253.0,223.0,-909.0,1024.0,121253.0,2.967,-22.34,-983.48,0.264,-0.08
-909.0,1024.0,121254.0,223.0,-909.0,1024.0,121254.0,5.355,-22.317,-981.09,0.276,-0.0
-909.0,1023.0,121254.0,223.0,-909.0,1023.0,121254.0,4.806,-22.316,-979.31,0.226,0.01
-909.0,1023.0,121255.0,223.0,-909.0,1023.0,121255.0,4.529,-22.301,-977.29,0.233,0.11
-909.0,1022.0,121255.0,223.0,-909.0,1022.0,121255.0,4.723,-22.347,-977.7,0.103,-0.06
-909.0,1022.0,121256.0,223.0,-909.0,1022.0,121256.0,4.753,-22.458,-980.44,0.145,0.04
-910.0,1021.0,121256.0,223.0,-910.0,1021.0,121256.0,4.778,-22.536,-982.6,0.087,-0.1
-911.0,1020.0,121257.0,223.0,-911.0,1020.0,121257.0,4.662,-22.516,-982.07,0.168,-0.16
-911.0,1020.0,121257.0,223.0,-911.0,1020.0,121257.0,4.603,-22.511,-981.74,0.314,0.07
-912.0,1020.0,121258.0,223.0,-912.0,1020.0,121258.0,2.199,-22.502,-981.98,0.226,-0.08
-911.0,1020.0,121258.0,223.0,-911.0,1020.0,121258.0,2.242,-22.489,-981.92,0.296,0.19
-911.0,1020.0,121259.0,223.0,-911.0,1020.0,121259.0,5.159,-22.476,-981.87,0.22,0.08
-912.0,1018.0,121259.0,223.0,-912.0,1018.0,121259.0,4.872,-22.409,-981.87,0.064,-0.05
-912.0,1018.0,121260.0,223.0,-912.0,1018.0,121260.0,4.373,-22.339,-981.89,0.163,-0.03
-913.0,1017.0,121260.0,223.0,-913.0,1017.0,121260.0,4.549,-22.299,-981.88,0.093,-0.23
-914.0,1016.0,121261.0,223.0,-914.0,1016.0,121261.0,4.397,-22.211,-979.49,0.161,-0.08
-914.0,1016.0,121261.0,223.0,-914.0,1016.0,121261.0,4.446,-22.251,-979.54,0.32,0.01
-914.0,1016.0,121262.0,223.0,-914.0,1016.0,121262.0,4.568,-22.412,-982.47,0.222,0.12
-913.0,1015.0,121262.0,223.0,-913.0,1015.0,121262.0,4.642,-22.446,-982.19,0.147,0.15
-913.0,1014.0,121263.0,223.0,-913.0,1014.0,121263.0,4.584,-22.354,-979.32,0.129,0.1
-914.0,1013.0,121263.0,223.0,-914.0,1013.0,121263.0,4.566,-22.349,-979.59,0.05,-0.12
-915.0,1013.0,121264.0,223.0,-915.0,1013.0,121264.0,2.228,-22.412,-982.5,0.181,-0.16
-916.0,1013.0,121264.0,223.0,-916.0,1013.0,121264.0,2.203,-22.399,-982.25,0.327,-0.0
-916.0,1013.0,121265.0,223.0,-916.0,1013.0,121265.0,5.061,-22.416,-981.68,0.22,0.08
-914.0,1013.0,121265.0,223.0,-914.0,1013.0,121265.0,4.713,-24.685,-979.49,0.296,0.32
-913.0,1013.0,121266.0,223.0,-913.0,1013.0,121266.0,4.185,-26.868,-977.06,0.072,0.35
-912.0,1013.0,121267.0,223.0,-912.0,1013.0,121267.0,4.431,-26.275,-977.68,0.111,0.1
-912.0,1012.0,121267.0,223.0,-912.0,1012.0,121267.0,4.344,-25.948,-977.96,0.103,0.19
-912.0,1012.0,121268.0,223.0,-912.0,1012.0,121268.0,4.296,-23.756,-977.85,0.175,-0.05
-913.0,1012.0,121268.0,223.0,-913.0,1012.0,121268.0,4.202,-21.447,-977.94,0.31,-0.04
-912.0,1012.0,121269.0,223.0,-912.0,1012.0,121269.0,4.27,-22.165,-980.3,0.228,0.12
-912.0,1012.0,121269.0,223.0,-912.0,1012.0,121269.0,4.381,-24.913,-982.61,0.29,0.02
-911.0,1012.0,121270.0,223.0,-911.0,1012.0,121270.0,4.445,-27.035,-981.96,0.073,0.31
-910.0,1011.0,121270.0,223.0,-910.0,1011.0,121270.0,4.636,-26.547,-984.06,0.117,0.16
-910.0,1011.0,121271.0,223.0,-910.0,1011.0,121271.0,4.799,-26.291,-986.58,0.098,0.17
-909.0,1011.0,121271.0,223.0,-909.0,1011.0,121271.0,4.797,-26.442,-985.93,0.173,0.16
-909.0,1012.0,121272.0,223.0,-909.0,1012.0,121272.0,4.754,-26.389,-985.64,0.312,0.01
-909.0,1012.0,121272.0,223.0,-909.0,1012.0,121272.0,4.621,-26.352,-983.4,0.227,0.08
-910.0,1012.0,121273.0,223.0,-910.0,1012.0,121273.0,4.492,-26.275,-981.04,0.145,-0.1
-910.0,1013.0,121273.0,223.0,-910.0,1013.0,121273.0,4.48,-28.65,-981.59,0.123,0.0
-910.0,1012.0,121274.0,223.0,-910.0,1012.0,121274.0,4.513,-28.584,-981.87,0.053,-0.05
-910.0,1012.0,121274.0,223.0,-910.0,1012.0,121274.0,4.585,-25.685,-981.78,0.036,0.13
-909.0,1012.0,121275.0,223.0,-909.0,1012.0,121275.0,7.032,-25.991,-981.77,0.23,0.23
-907.0,1011.0,121275.0,223.0,-907.0,1011.0,121275.0,9.323,-26.419,-979.31,0.061,0.22
-906.0,1011.0,121276.0,223.0,-906.0,1011.0,121276.0,8.664,-26.157,-977.01,0.075,0.19
-905.0,1011.0,121276.0,223.0,-905.0,1011.0,121276.0,8.318,-26.257,-977.59,0.197,-0.01
-905.0,1011.0,121277.0,223.0,-905.0,1011.0,121277.0,8.396,-26.254,-977.9,0.031,0.06
-905.0,1011.0,121277.0,223.0,-905.0,1011.0,121277.0,8.342,-24.016,-980.17,0.237,-0.09
-904.0,1011.0,121278.0,223.0,-904.0,1011.0,121278.0,8.313,-21.688,-980.2,0.304,0.15
-902.0,1010.0,121278.0,223.0,-902.0,1010.0,121278.0,8.205,-22.127,-977.26,0.185,0.18
-902.0,1010.0,121279.0,223.0,-902.0,1010.0,121279.0,8.284,-22.398,-977.55,0.312,0.09
-900.0,1010.0,121279.0,223.0,-900.0,1010.0,121279.0,5.985,-22.158,-978.06,0.225,0.27
-900.0,1010.0,121280.0,223.0,-900.0,1010.0,121280.0,6.065,-22.131,-977.85,0.2,0.05
-899.0,1009.0,121280.0,223.0,-899.0,1009.0,121280.0,6.606,-22.08,-977.9,0.263,0.09
-899.0,1009.0,121281.0,223.0,-899.0,1009.0,121281.0,3.98,-22.051,-977.91,0.247,0.11
-900.0,1009.0,121281.0,223.0,-900.0,1009.0,121281.0,4.068,-22.05,-977.94,0.232,-0.15
-901.0,1009.0,121282.0,223.0,-901.0,1009.0,121282.0,4.563,-24.437,-977.87,0.247,0.01
-900.0,1009.0,121282.0,223.0,-900.0,1009.0,121282.0,4.347,-26.778,-977.83,0.237,0.1
-899.0,1010.0,121283.0,223.0,-899.0,1010.0,121283.0,6.846,-26.267,-977.8,0.237,0.21
-897.0,1010.0,121283.0,223.0,-897.0,1010.0,121283.0,6.806,-26.009,-977.8,0.245,0.39
-896.0,1010.0,121284.0,223.0,-896.0,1010.0,121284.0,3.956,-26.181,-977.86,0.095,0.29
-896.0,1010.0,121284.0,223.0,-896.0,1010.0,121284.0,4.265,-26.247,-980.24,0.144,0.11
-895.0,1009.0,121285.0,223.0,-895.0,1009.0,121285.0,4.715,-26.363,-982.57,-0.062,0.14
-895.0,1008.0,121285.0,223.0,-895.0,1008.0,121285.0,4.378,-26.345,-981.98,0.069,0.1
-894.0,1008.0,121286.0,223.0,-894.0,1008.0,121286.0,4.337,-26.386,-981.67,0.157,0.21
-893.0,1008.0,121287.0,223.0,-893.0,1008.0,121287.0,4.297,-26.439,-981.85,0.149,0.21
-893.0,1009.0,121287.0,223.0,-893.0,1009.0,121287.0,4.444,-26.56,-984.19,0.368,0.15
-892.0,1010.0,121288.0,223.0,-892.0,1010.0,121288.0,4.569,-26.653,-986.54,0.202,0.16
-892.0,1010.0,121288.0,223.0,-892.0,1010.0,121288.0,4.538,-26.495,-983.54,0.26,0.17
-891.0,1011.0,121289.0,223.0,-891.0,1011.0,121289.0,4.519,-26.306,-980.91,0.235,0.17
-891.0,1010.0,121289.0,223.0,-891.0,1010.0,121289.0,4.677,-23.963,-984.1,0.072,0.03
-891.0,1009.0,121290.0,223.0,-891.0,1009.0,121290.0,4.805,-21.668,-986.74,0.156,0.08
-892.0,1008.0,121290.0,223.0,-892.0,1008.0,121290.0,2.42,-22.146,-986.03,0.093,-0.12
-893.0,1007.0,121291.0,223.0,-893.0,1007.0,121291.0,0.025,-22.336,-983.4,0.156,0.14
-893.0,1007.0,121291.0,223.0,-893.0,1007.0,121291.0,0.645,-22.24,-983.62,0.171,0.18
-892.0,1006.0,121292.0,223.0,-892.0,1006.0,121292.0,3.355,-24.755,-984.03,0.129,0.23
-890.0,1006.0,121292.0,223.0,-890.0,1006.0,121292.0,3.118,-27.107,-983.75,-0.013,0.37
-891.0,1005.0,121293.0,223.0,-891.0,1005.0,121293.0,0.301,-26.668,-986.25,0.05,0.06
-891.0,1005.0,121293.0,223.0,-891.0,1005.0,121293.0,2.862,-26.414,-986.15,0.124,0.2
-890.0,1005.0,121294.0,223.0,-890.0,1005.0,121294.0,5.55,-26.616,-985.56,0.162,0.11
-890.0,1006.0,121294.0,223.0,-890.0,1006.0,121294.0,4.582,-26.501,-983.43,0.378,0.03
-890.0,1007.0,121295.0,223.0,-890.0,1007.0,121295.0,4.296,-26.486,-983.4,0.197,0.12
-890.0,1007.0,121295.0,223.0,-890.0,1007.0,121295.0,4.478,-26.434,-983.98,0.261,0.01
-890.0,1007.0,121296.0,223.0,-890.0,1007.0,121296.0,4.518,-26.345,-983.72,0.231,0.08
-889.0,1008.0,121296.0,223.0,-889.0,1008.0,121296.0,4.683,-26.328,-986.18,0.214,0.25
-888.0,1008.0,121297.0,223.0,-888.0,1008.0,121297.0,4.67,-26.152,-983.73,0.254,0.29
-887.0,1009.0,121297.0,223.0,-887.0,1009.0,121297.0,4.651,-26.008,-980.85,0.252,0.17
-887.0,1009.0,121298.0,223.0,-887.0,1009.0,121298.0,4.684,-23.691,-981.73,0.23,0.07
-888.0,1008.0,121298.0,223.0,-888.0,1008.0,121298.0,4.65,-21.438,-982.0,0.24,-0.03
-888.0,1008.0,121299.0,223.0,-888.0,1008.0,121299.0,4.58,-22.066,-981.86,0.24,-0.11
-888.0,1008.0,121299.0,223.0,-888.0,1008.0,121299.0,4.536,-22.427,-981.87,0.237,0.06
-888.0,1008.0,121300.0,223.0,-888.0,1008.0,121300.0,4.55,-22.316,-981.87,0.242,0.08
-888.0,1007.0,121300.0,223.0,-888.0,1007.0,121300.0,4.609,-22.404,-981.89,0.239,0.07
-887.0,1007.0,121301.0,223.0,-887.0,1007.0,121301.0,4.661,-24.767,-981.83,0.237,0.29
-887.0,1008.0,121301.0,223.0,-887.0,1008.0,121301.0,4.686,-27.089,-981.79,0.24,0.12
-886.0,1008.0,121301.0,223.0,-886.0,1008.0,121301.0,2.304,-26.472,-981.85,0.239,0.19
-886.0,1009.0,121301.0,223.0,-886.0,1009.0,121301.0,2.298,-26.164,-981.85,0.239,0.17
-885.0,1009.0,121302.0,223.0,-885.0,1009.0,121302.0,5.036,-26.259,-979.4,0.239,0.14
-884.0,1010.0,121302.0,223.0,-884.0,1010.0,121302.0,4.594,-26.11,-977.07,0.239,0.32
-883.0,1010.0,121303.0,223.0,-883.0,1010.0,121303.0,4.157,-26.212,-980.06,0.239,0.27
-883.0,1010.0,121304.0,223.0,-883.0,1010.0,121304.0,4.423,-26.285,-982.7,0.239,0.17
-882.0,1011.0,121304.0,223.0,-882.0,1011.0,121304.0,4.331,-26.267,-981.94,0.239,0.15
-883.0,1011.0,121304.0,223.0,-883.0,1011.0,121304.0,4.356,-26.255,-981.68,0.239,-0.05
-882.0,1012.0,121305.0,223.0,-882.0,1012.0,121305.0,4.364,-26.259,-981.84,0.239,0.11
-882.0,1012.0,121306.0,223.0,-882.0,1012.0,121306.0,4.451,-26.266,-981.81,0.239,0.19
-881.0,1012.0,121306.0,223.0,-881.0,1012.0,121306.0,4.473,-26.182,-979.42,0.239,0.17
-880.0,1013.0,121307.0,223.0,-880.0,1013.0,121307.0,4.565,-26.187,-979.46,0.239,0.39
-879.0,1013.0,121307.0,223.0,-879.0,1013.0,121307.0,4.739,-23.951,-982.45,0.239,0.08
-879.0,1013.0,121308.0,223.0,-879.0,1013.0,121308.0,4.739,-21.649,-982.2,0.239,0.05
-880.0,1012.0,121308.0,223.0,-880.0,1012.0,121308.0,4.668,-22.211,-981.71,0.239,0.02
-880.0,1011.0,121309.0,223.0,-880.0,1011.0,121309.0,4.614,-22.519,-981.92,0.094,-0.12
-880.0,1011.0,121309.0,223.0,-880.0,1011.0,121309.0,4.582,-22.351,-981.87,0.289,0.18
-879.0,1011.0,121310.0,223.0,-879.0,1011.0,121310.0,4.584,-24.748,-981.85,0.175,0.18
-880.0,1011.0,121310.0,223.0,-880.0,1011.0,121310.0,2.239,-27.021,-981.82,0.176,0.08
-880.0,1012.0,121311.0,223.0,-880.0,1012.0,121311.0,-0.042,-26.453,-981.89,0.295,0.14
-881.0,1011.0,121311.0,223.0,-881.0,1011.0,121311.0,2.843,-26.087,-979.45,-0.012,-0.18
-882.0,1012.0,121312.0,223.0,-882.0,1012.0,121312.0,5.366,-26.198,-977.06,0.231,-0.15
-883.0,1012.0,121312.0,223.0,-883.0,1012.0,121312.0,4.611,-26.173,-977.67,0.24,-0.11
-884.0,1012.0,121313.0,223.0,-884.0,1012.0,121313.0,4.37,-26.193,-977.98,0.211,-0.02
-881.0,1012.0,121314.0,223.0,-881.0,1012.0,121314.0,9.32,-21.582,-977.85,0.21,0.29
-879.0,1012.0,121314.0,223.0,-879.0,1012.0,121314.0,8.743,-22.12,-977.84,0.19,0.31
-877.0,1012.0,121315.0,223.0,-877.0,1012.0,121315.0,8.37,-22.373,-977.86,0.262,0.27
-876.0,1012.0,121315.0,223.0,-876.0,1012.0,121315.0,8.42,-24.52,-977.8,0.242,0.15
-876.0,1012.0,121316.0,223.0,-876.0,1012.0,121316.0,5.82,-26.812,-977.8,0.089,0.14
-876.0,1012.0,121316.0,223.0,-876.0,1012.0,121316.0,3.443,-26.289,-980.25,0.151,-0.03
-877.0,1011.0,121317.0,223.0,-877.0,1011.0,121317.0,3.936,-26.03,-980.19,0.073,-0.01
-877.0,1011.0,121317.0,223.0,-877.0,1011.0,121317.0,4.249,-26.21,-979.64,0.159,0.09
-878.0,1012.0,121318.0,223.0,-878.0,1012.0,121318.0,1.895,-26.301,-982.31,0.319,-0.11
-878.0,1012.0,121318.0,223.0,-878.0,1012.0,121318.0,2.144,-26.37,-982.2,0.221,0.08
-879.0,1013.0,121319.0,223.0,-879.0,1013.0,121319.0,2.82,-26.366,-981.67,0.289,0.05
-879.0,1013.0,121319.0,223.0,-879.0,1013.0,121319.0,0.393,-24.008,-981.98,0.217,0.04
-879.0,1012.0,121320.0,223.0,-879.0,1012.0,121320.0,0.58,-21.66,-981.96,0.204,0.31
-878.0,1012.0,121320.0,223.0,-878.0,1012.0,121320.0,1.184,-22.26,-984.37,0.254,0.28
-878.0,1012.0,121321.0,223.0,-878.0,1012.0,121321.0,0.973,-22.586,-986.66,0.248,0.28
-877.0,1012.0,121321.0,223.0,-877.0,1012.0,121321.0,0.88,-24.705,-986.04,0.232,0.32
-877.0,1012.0,121322.0,223.0,-877.0,1012.0,121322.0,2.946,-26.95,-983.26,0.24,0.07
-877.0,1013.0,121322.0,223.0,-877.0,1013.0,121322.0,5.076,-26.312,-981.05,0.235,0.01
-877.0,1013.0,121323.0,223.0,-877.0,1013.0,121323.0,4.393,-26.064,-981.62,0.236,0.05
-878.0,1014.0,121323.0,223.0,-878.0,1014.0,121323.0,4.08,-26.255,-981.94,0.241,0.04
-877.0,1014.0,121324.0,223.0,-877.0,1014.0,121324.0,4.331,-26.24,-981.75,0.238,0.26
-875.0,1014.0,121325.0,223.0,-875.0,1014.0,121325.0,6.8,-26.303,-981.76,0.236,0.32
-874.0,1015.0,121325.0,223.0,-874.0,1015.0,121325.0,9.194,-26.235,-979.32,0.238,0.15
-872.0,1014.0,121326.0,223.0,-872.0,1014.0,121326.0,8.683,-26.257,-979.4,0.093,0.2
-872.0,1015.0,121326.0,223.0,-872.0,1015.0,121326.0,6.146,-23.993,-982.41,0.288,0.06
-872.0,1014.0,121327.0,223.0,-872.0,1014.0,121327.0,3.949,-24.015,-982.17,0.174,0.17
-871.0,1015.0,121327.0,223.0,-871.0,1015.0,121327.0,4.406,-26.886,-981.63,0.32,0.22
-870.0,1017.0,121328.0,223.0,-870.0,1017.0,121328.0,4.693,-26.622,-981.84,0.389,0.16
-870.0,1016.0,121328.0,223.0,-870.0,1016.0,121328.0,4.48,-26.142,-981.8,0.146,0.02
-871.0,1016.0,121329.0,223.0,-871.0,1016.0,121329.0,2.149,-26.304,-981.86,0.161,0.08
-871.0,1016.0,121329.0,223.0,-871.0,1016.0,121329.0,-0.182,-26.189,-981.88,0.068,0.15
-872.0,1015.0,121330.0,223.0,-872.0,1015.0,121330.0,0.442,-26.2,-981.88,0.067,0.05
-871.0,1016.0,121330.0,223.0,-871.0,1016.0,121330.0,3.149,-26.207,-981.83,0.211,0.31
-871.0,1016.0,121331.0,223.0,-871.0,1016.0,121331.0,5.337,-26.294,-981.79,0.306,-0.06
-872.0,1017.0,121331.0,223.0,-872.0,1017.0,121331.0,4.813,-26.353,-981.8,0.206,-0.01
-872.0,1017.0,121332.0,223.0,-872.0,1017.0,121332.0,4.492,-26.383,-981.81,0.297,-0.05
-873.0,1018.0,121332.0,223.0,-873.0,1018.0,121332.0,4.678,-26.388,-981.8,0.21,-0.09
-873.0,1018.0,121333.0,223.0,-873.0,1018.0,121333.0,4.639,-26.344,-981.8,0.205,0.18
-872.0,1018.0,121333.0,223.0,-872.0,1018.0,121333.0,4.685,-26.283,-981.8,0.114,0.1
-871.0,1017.0,121334.0,223.0,-871.0,1017.0,121334.0,4.698,-26.227,-981.8,0.003,0.24
-871.0,1016.0,121334.0,223.0,-871.0,1016.0,121334.0,4.699,-26.2,-981.8,-0.023,0.14
